[{"rt":2023,"stimulus":"<div style='color:white'>Welcome to our decision-making experiment. In this experiment, you will make decisions between two options. \n Press the SPACE key to continue.</div>","response":" ","trial_type":"html-keyboard-response","trial_index":0,"time_elapsed":2043,"internal_node_id":"0.0-0.0-0.0","bean_trial_duration":null,"bean_duration":null,"bean_stimulus":"<div style='color:white'>Welcome to our decision-making experiment. In this experiment, you will make decisions between two options.\nPress the SPACE key to continue.</div>","bean_choices":[" "],"bean_correct_key":"","bean_type":"jsPsychHtmlKeyboardResponse","bean_text":"Welcome to our decision-making experiment. In this experiment, you will make decisions between two options.     \n Press the SPACE key to continue.","bean_color":"white","bean_correct":false},{"rt":1567,"stimulus":"<div style='color:white'>\n    <div class=\"slotmachine\" style=\"position: absolute; top:1vh; left:0 vw; width: 30vw; height: 35vh; border-color:orange\n        \">\n        </div>\n        <div class=\"slotmachine\" style=\"position: absolute; top:1vh; right:0 vw; left:40vw; width: 30vw; height: 35vh; border-color:blue\n        \">\n        </div>\n    In each trial, you will see two slot machines (bandits) on the screen. <b> Click on a bandit </b> to make your choice.    Press SPACE to continue.</div>","response":" ","trial_type":"html-keyboard-response","trial_index":1,"time_elapsed":3610,"internal_node_id":"0.0-0.0-1.0","bean_trial_duration":null,"bean_duration":null,"bean_stimulus":"<div style='color:white'>\"\n    <div class=\"slotmachine\" style=\"position: absolute; top:1vh; left:0 vw; width: 30vw; height: 35vh; border-color:orange\n        \">\n        </div>\n        <div class=\"slotmachine\" style=\"position: absolute; top:1vh; right:0 vw; left:40vw; width: 30vw; height: 35vh; border-color:blue\n        \">\n        </div>\n    \"In each trial, you will see two slot machines (bandits) on the screen. <b> Click on a bandit </b> to make your choice.    Press SPACE to continue.</div>","bean_choices":[" "],"bean_correct_key":"","bean_type":"jsPsychHtmlKeyboardResponse","bean_text":"\"\n    <div class=\"slotmachine\" style=\"position: absolute; top:1vh; left:0 vw; width: 30vw; height: 35vh; border-color:orange\n        \">\n        </div>\n        <div class=\"slotmachine\" style=\"position: absolute; top:1vh; right:0 vw; left:40vw; width: 30vw; height: 35vh; border-color:blue\n        \">\n        </div>\n    \"In each trial, you will see two slot machines (bandits) on the screen. <b> Click on a bandit </b> to make your choice    Press SPACE to continue.","bean_color":"white","bean_correct":false},{"rt":1166,"stimulus":"<div style='color:white'>After selecting a bandit, you will receive feedback showing whether you won reward (1 point) or not (0 point). One bandit tends to give rewards more often than the other. However, this may change during the experiment.</div>","response":" ","trial_type":"html-keyboard-response","trial_index":2,"time_elapsed":4779,"internal_node_id":"0.0-0.0-2.0","bean_trial_duration":null,"bean_duration":null,"bean_stimulus":"<div style='color:white'>After selecting a bandit, you will receive feedback showing whether you won reward (1 point) or not (0 point). One bandit tends to give rewards more often than the other. However, this may change during the experiment.</div>","bean_choices":[" "],"bean_correct_key":"","bean_type":"jsPsychHtmlKeyboardResponse","bean_text":"After selecting a bandit, you will receive feedback showing whether you won reward (1 point) or not (0 point). One bandit tends to give rewards more often than the other. However, this may change during the experiment.","bean_color":"white","bean_correct":false},{"rt":1077,"stimulus":"<div style='color:white'>Your goal is to earn as many points as possible. Pay attention to feedback, as the probabilities of winning for each bandit may change over time.     You are now ready to begin. Good luck! Press Q to start the task.</div>","response":" ","trial_type":"html-keyboard-response","trial_index":3,"time_elapsed":5855,"internal_node_id":"0.0-0.0-3.0","bean_trial_duration":null,"bean_duration":null,"bean_stimulus":"<div style='color:white'>Your goal is to earn as many points as possible. Pay attention to feedback, as the probabilities of winning for each bandit may change over time.     You are now ready to begin. Good luck! Press Q to start the task.</div>","bean_choices":["q"," "],"bean_correct_key":"","bean_type":"jsPsychHtmlKeyboardResponse","bean_text":"Your goal is to earn as many points as possible. Pay attention to feedback, as the probabilities of winning for each bandit may change over time.     You are now ready to begin. Good luck! Press Q to start the task.","bean_color":"white","bean_correct":false},{"rt":1142,"stimulus":["<div class=\"slotmachine\" style=\"position: absolute; top:10vh; left:10vw; width: 35vw; height: 35vh; border-color: orange;\"></div>","<div class=\"slotmachine\" style=\"position: absolute; top:10vh; left:55vw; width: 35vw; height: 35vh; border-color: blue;\"></div>"],"response":0,"value":0,"trial_type":"html-choice","trial_index":4,"time_elapsed":9006,"internal_node_id":"0.0-1.0-0.0","bean_trial_duration":null,"bean_duration":null,"bean_html_array":["<div class=\"slotmachine\" style=\"position: absolute; top:10vh; left:10vw; width: 35vw; height: 35vh; border-color: orange ></div>","<div class=\"slotmachine\" style=\"position: absolute; top:10vh; left:55vw; width: 35vw; height: 35vh; border-color: blue ></div>"],"bean_values":[0,1],"bean_time_after_response":2000,"bean_type":"jsPsychHtmlChoice","bean_bandits":[{"color":"orange","value":0},{"color":"blue","value":1}],"bean_value":0,"bean_score":0},{"rt":null,"stimulus":"<div style='color:white'>Score: 0</div>","response":null,"trial_type":"html-keyboard-response","trial_index":5,"time_elapsed":10103,"internal_node_id":"0.0-1.0-1.0","bean_trial_duration":1000,"bean_duration":1000,"bean_stimulus":"<div style='color:white'>Score: 0</div>","bean_choices":[],"bean_correct_key":"","bean_type":"jsPsychHtmlKeyboardResponse","bean_text":"Score: 0","bean_color":"white","bean_correct":false},{"rt":660,"stimulus":["<div class=\"slotmachine\" style=\"position: absolute; top:10vh; left:10vw; width: 35vw; height: 35vh; border-color: orange;\"></div>","<div class=\"slotmachine\" style=\"position: absolute; top:10vh; left:55vw; width: 35vw; height: 35vh; border-color: blue;\"></div>"],"response":0,"value":1,"trial_type":"html-choice","trial_index":6,"time_elapsed":12776,"internal_node_id":"0.0-1.0-0.1","bean_trial_duration":null,"bean_duration":null,"bean_html_array":["<div class=\"slotmachine\" style=\"position: absolute; top:10vh; left:10vw; width: 35vw; height: 35vh; border-color: orange ></div>","<div class=\"slotmachine\" style=\"position: absolute; top:10vh; left:55vw; width: 35vw; height: 35vh; border-color: blue ></div>"],"bean_values":[1,1],"bean_time_after_response":2000,"bean_type":"jsPsychHtmlChoice","bean_bandits":[{"color":"orange","value":1},{"color":"blue","value":1}],"bean_value":1,"bean_score":1},{"rt":null,"stimulus":"<div style='color:white'>Score: 1</div>","response":null,"trial_type":"html-keyboard-response","trial_index":7,"time_elapsed":13782,"internal_node_id":"0.0-1.0-1.1","bean_trial_duration":1000,"bean_duration":1000,"bean_stimulus":"<div style='color:white'>Score: 1</div>","bean_choices":[],"bean_correct_key":"","bean_type":"jsPsychHtmlKeyboardResponse","bean_text":"Score: 1","bean_color":"white","bean_correct":false},{"rt":701,"stimulus":["<div class=\"slotmachine\" style=\"position: absolute; top:10vh; left:10vw; width: 35vw; height: 35vh; border-color: orange;\"></div>","<div class=\"slotmachine\" style=\"position: absolute; top:10vh; left:55vw; width: 35vw; height: 35vh; border-color: blue;\"></div>"],"response":0,"value":0,"trial_type":"html-choice","trial_index":8,"time_elapsed":16497,"internal_node_id":"0.0-1.0-0.2","bean_trial_duration":null,"bean_duration":null,"bean_html_array":["<div class=\"slotmachine\" style=\"position: absolute; top:10vh; left:10vw; width: 35vw; height: 35vh; border-color: orange ></div>","<div class=\"slotmachine\" style=\"position: absolute; top:10vh; left:55vw; width: 35vw; height: 35vh; border-color: blue ></div>"],"bean_values":[0,1],"bean_time_after_response":2000,"bean_type":"jsPsychHtmlChoice","bean_bandits":[{"color":"orange","value":0},{"color":"blue","value":1}],"bean_value":0,"bean_score":1},{"rt":null,"stimulus":"<div style='color:white'>Score: 1</div>","response":null,"trial_type":"html-keyboard-response","trial_index":9,"time_elapsed":17510,"internal_node_id":"0.0-1.0-1.2","bean_trial_duration":1000,"bean_duration":1000,"bean_stimulus":"<div style='color:white'>Score: 1</div>","bean_choices":[],"bean_correct_key":"","bean_type":"jsPsychHtmlKeyboardResponse","bean_text":"Score: 1","bean_color":"white","bean_correct":false},{"rt":693,"stimulus":["<div class=\"slotmachine\" style=\"position: absolute; top:10vh; left:10vw; width: 35vw; height: 35vh; border-color: orange;\"></div>","<div class=\"slotmachine\" style=\"position: absolute; top:10vh; left:55vw; width: 35vw; height: 35vh; border-color: blue;\"></div>"],"response":1,"value":0,"trial_type":"html-choice","trial_index":10,"time_elapsed":20216,"internal_node_id":"0.0-1.0-0.3","bean_trial_duration":null,"bean_duration":null,"bean_html_array":["<div class=\"slotmachine\" style=\"position: absolute; top:10vh; left:10vw; width: 35vw; height: 35vh; border-color: orange ></div>","<div class=\"slotmachine\" style=\"position: absolute; top:10vh; left:55vw; width: 35vw; height: 35vh; border-color: blue ></div>"],"bean_values":[0,0],"bean_time_after_response":2000,"bean_type":"jsPsychHtmlChoice","bean_bandits":[{"color":"orange","value":0},{"color":"blue","value":0}],"bean_value":0,"bean_score":1},{"rt":null,"stimulus":"<div style='color:white'>Score: 1</div>","response":null,"trial_type":"html-keyboard-response","trial_index":11,"time_elapsed":21225,"internal_node_id":"0.0-1.0-1.3","bean_trial_duration":1000,"bean_duration":1000,"bean_stimulus":"<div style='color:white'>Score: 1</div>","bean_choices":[],"bean_correct_key":"","bean_type":"jsPsychHtmlKeyboardResponse","bean_text":"Score: 1","bean_color":"white","bean_correct":false},{"rt":608,"stimulus":["<div class=\"slotmachine\" style=\"position: absolute; top:10vh; left:10vw; width: 35vw; height: 35vh; border-color: orange;\"></div>","<div class=\"slotmachine\" style=\"position: absolute; top:10vh; left:55vw; width: 35vw; height: 35vh; border-color: blue;\"></div>"],"response":1,"value":0,"trial_type":"html-choice","trial_index":12,"time_elapsed":23848,"internal_node_id":"0.0-1.0-0.4","bean_trial_duration":null,"bean_duration":null,"bean_html_array":["<div class=\"slotmachine\" style=\"position: absolute; top:10vh; left:10vw; width: 35vw; height: 35vh; border-color: orange ></div>","<div class=\"slotmachine\" style=\"position: absolute; top:10vh; left:55vw; width: 35vw; height: 35vh; border-color: blue ></div>"],"bean_values":[0,0],"bean_time_after_response":2000,"bean_type":"jsPsychHtmlChoice","bean_bandits":[{"color":"orange","value":0},{"color":"blue","value":0}],"bean_value":0,"bean_score":1},{"rt":null,"stimulus":"<div style='color:white'>Score: 1</div>","response":null,"trial_type":"html-keyboard-response","trial_index":13,"time_elapsed":24863,"internal_node_id":"0.0-1.0-1.4","bean_trial_duration":1000,"bean_duration":1000,"bean_stimulus":"<div style='color:white'>Score: 1</div>","bean_choices":[],"bean_correct_key":"","bean_type":"jsPsychHtmlKeyboardResponse","bean_text":"Score: 1","bean_color":"white","bean_correct":false},{"rt":854,"stimulus":["<div class=\"slotmachine\" style=\"position: absolute; top:10vh; left:10vw; width: 35vw; height: 35vh; border-color: orange;\"></div>","<div class=\"slotmachine\" style=\"position: absolute; top:10vh; left:55vw; width: 35vw; height: 35vh; border-color: blue;\"></div>"],"response":0,"value":1,"trial_type":"html-choice","trial_index":14,"time_elapsed":27883,"internal_node_id":"0.0-1.0-0.5","bean_trial_duration":null,"bean_duration":null,"bean_html_array":["<div class=\"slotmachine\" style=\"position: absolute; top:10vh; left:10vw; width: 35vw; height: 35vh; border-color: orange ></div>","<div class=\"slotmachine\" style=\"position: absolute; top:10vh; left:55vw; width: 35vw; height: 35vh; border-color: blue ></div>"],"bean_values":[1,0],"bean_time_after_response":2000,"bean_type":"jsPsychHtmlChoice","bean_bandits":[{"color":"orange","value":1},{"color":"blue","value":0}],"bean_value":1,"bean_score":2},{"rt":null,"stimulus":"<div style='color:white'>Score: 2</div>","response":null,"trial_type":"html-keyboard-response","trial_index":15,"time_elapsed":28898,"internal_node_id":"0.0-1.0-1.5","bean_trial_duration":1000,"bean_duration":1000,"bean_stimulus":"<div style='color:white'>Score: 2</div>","bean_choices":[],"bean_correct_key":"","bean_type":"jsPsychHtmlKeyboardResponse","bean_text":"Score: 2","bean_color":"white","bean_correct":false},{"rt":747,"stimulus":["<div class=\"slotmachine\" style=\"position: absolute; top:10vh; left:10vw; width: 35vw; height: 35vh; border-color: orange;\"></div>","<div class=\"slotmachine\" style=\"position: absolute; top:10vh; left:55vw; width: 35vw; height: 35vh; border-color: blue;\"></div>"],"response":0,"value":1,"trial_type":"html-choice","trial_index":16,"time_elapsed":31812,"internal_node_id":"0.0-1.0-0.6","bean_trial_duration":null,"bean_duration":null,"bean_html_array":["<div class=\"slotmachine\" style=\"position: absolute; top:10vh; left:10vw; width: 35vw; height: 35vh; border-color: orange ></div>","<div class=\"slotmachine\" style=\"position: absolute; top:10vh; left:55vw; width: 35vw; height: 35vh; border-color: blue ></div>"],"bean_values":[1,0],"bean_time_after_response":2000,"bean_type":"jsPsychHtmlChoice","bean_bandits":[{"color":"orange","value":1},{"color":"blue","value":0}],"bean_value":1,"bean_score":3},{"rt":null,"stimulus":"<div style='color:white'>Score: 3</div>","response":null,"trial_type":"html-keyboard-response","trial_index":17,"time_elapsed":32828,"internal_node_id":"0.0-1.0-1.6","bean_trial_duration":1000,"bean_duration":1000,"bean_stimulus":"<div style='color:white'>Score: 3</div>","bean_choices":[],"bean_correct_key":"","bean_type":"jsPsychHtmlKeyboardResponse","bean_text":"Score: 3","bean_color":"white","bean_correct":false},{"rt":697,"stimulus":["<div class=\"slotmachine\" style=\"position: absolute; top:10vh; left:10vw; width: 35vw; height: 35vh; border-color: orange;\"></div>","<div class=\"slotmachine\" style=\"position: absolute; top:10vh; left:55vw; width: 35vw; height: 35vh; border-color: blue;\"></div>"],"response":0,"value":1,"trial_type":"html-choice","trial_index":18,"time_elapsed":35533,"internal_node_id":"0.0-1.0-0.7","bean_trial_duration":null,"bean_duration":null,"bean_html_array":["<div class=\"slotmachine\" style=\"position: absolute; top:10vh; left:10vw; width: 35vw; height: 35vh; border-color: orange ></div>","<div class=\"slotmachine\" style=\"position: absolute; top:10vh; left:55vw; width: 35vw; height: 35vh; border-color: blue ></div>"],"bean_values":[1,0],"bean_time_after_response":2000,"bean_type":"jsPsychHtmlChoice","bean_bandits":[{"color":"orange","value":1},{"color":"blue","value":0}],"bean_value":1,"bean_score":4},{"rt":null,"stimulus":"<div style='color:white'>Score: 4</div>","response":null,"trial_type":"html-keyboard-response","trial_index":19,"time_elapsed":36537,"internal_node_id":"0.0-1.0-1.7","bean_trial_duration":1000,"bean_duration":1000,"bean_stimulus":"<div style='color:white'>Score: 4</div>","bean_choices":[],"bean_correct_key":"","bean_type":"jsPsychHtmlKeyboardResponse","bean_text":"Score: 4","bean_color":"white","bean_correct":false},{"rt":696,"stimulus":["<div class=\"slotmachine\" style=\"position: absolute; top:10vh; left:10vw; width: 35vw; height: 35vh; border-color: orange;\"></div>","<div class=\"slotmachine\" style=\"position: absolute; top:10vh; left:55vw; width: 35vw; height: 35vh; border-color: blue;\"></div>"],"response":0,"value":0,"trial_type":"html-choice","trial_index":20,"time_elapsed":39249,"internal_node_id":"0.0-1.0-0.8","bean_trial_duration":null,"bean_duration":null,"bean_html_array":["<div class=\"slotmachine\" style=\"position: absolute; top:10vh; left:10vw; width: 35vw; height: 35vh; border-color: orange ></div>","<div class=\"slotmachine\" style=\"position: absolute; top:10vh; left:55vw; width: 35vw; height: 35vh; border-color: blue ></div>"],"bean_values":[0,0],"bean_time_after_response":2000,"bean_type":"jsPsychHtmlChoice","bean_bandits":[{"color":"orange","value":0},{"color":"blue","value":0}],"bean_value":0,"bean_score":4},{"rt":null,"stimulus":"<div style='color:white'>Score: 4</div>","response":null,"trial_type":"html-keyboard-response","trial_index":21,"time_elapsed":40265,"internal_node_id":"0.0-1.0-1.8","bean_trial_duration":1000,"bean_duration":1000,"bean_stimulus":"<div style='color:white'>Score: 4</div>","bean_choices":[],"bean_correct_key":"","bean_type":"jsPsychHtmlKeyboardResponse","bean_text":"Score: 4","bean_color":"white","bean_correct":false},{"rt":1413,"stimulus":["<div class=\"slotmachine\" style=\"position: absolute; top:10vh; left:10vw; width: 35vw; height: 35vh; border-color: orange;\"></div>","<div class=\"slotmachine\" style=\"position: absolute; top:10vh; left:55vw; width: 35vw; height: 35vh; border-color: blue;\"></div>"],"response":0,"value":1,"trial_type":"html-choice","trial_index":22,"time_elapsed":43684,"internal_node_id":"0.0-1.0-0.9","bean_trial_duration":null,"bean_duration":null,"bean_html_array":["<div class=\"slotmachine\" style=\"position: absolute; top:10vh; left:10vw; width: 35vw; height: 35vh; border-color: orange ></div>","<div class=\"slotmachine\" style=\"position: absolute; top:10vh; left:55vw; width: 35vw; height: 35vh; border-color: blue ></div>"],"bean_values":[1,0],"bean_time_after_response":2000,"bean_type":"jsPsychHtmlChoice","bean_bandits":[{"color":"orange","value":1},{"color":"blue","value":0}],"bean_value":1,"bean_score":5},{"rt":null,"stimulus":"<div style='color:white'>Score: 5</div>","response":null,"trial_type":"html-keyboard-response","trial_index":23,"time_elapsed":44700,"internal_node_id":"0.0-1.0-1.9","bean_trial_duration":1000,"bean_duration":1000,"bean_stimulus":"<div style='color:white'>Score: 5</div>","bean_choices":[],"bean_correct_key":"","bean_type":"jsPsychHtmlKeyboardResponse","bean_text":"Score: 5","bean_color":"white","bean_correct":false},{"rt":763,"stimulus":["<div class=\"slotmachine\" style=\"position: absolute; top:10vh; left:10vw; width: 35vw; height: 35vh; border-color: orange;\"></div>","<div class=\"slotmachine\" style=\"position: absolute; top:10vh; left:55vw; width: 35vw; height: 35vh; border-color: blue;\"></div>"],"response":0,"value":0,"trial_type":"html-choice","trial_index":24,"time_elapsed":47472,"internal_node_id":"0.0-1.0-0.10","bean_trial_duration":null,"bean_duration":null,"bean_html_array":["<div class=\"slotmachine\" style=\"position: absolute; top:10vh; left:10vw; width: 35vw; height: 35vh; border-color: orange ></div>","<div class=\"slotmachine\" style=\"position: absolute; top:10vh; left:55vw; width: 35vw; height: 35vh; border-color: blue ></div>"],"bean_values":[0,0],"bean_time_after_response":2000,"bean_type":"jsPsychHtmlChoice","bean_bandits":[{"color":"orange","value":0},{"color":"blue","value":0}],"bean_value":0,"bean_score":5},{"rt":null,"stimulus":"<div style='color:white'>Score: 5</div>","response":null,"trial_type":"html-keyboard-response","trial_index":25,"time_elapsed":48489,"internal_node_id":"0.0-1.0-1.10","bean_trial_duration":1000,"bean_duration":1000,"bean_stimulus":"<div style='color:white'>Score: 5</div>","bean_choices":[],"bean_correct_key":"","bean_type":"jsPsychHtmlKeyboardResponse","bean_text":"Score: 5","bean_color":"white","bean_correct":false},{"rt":1308,"stimulus":["<div class=\"slotmachine\" style=\"position: absolute; top:10vh; left:10vw; width: 35vw; height: 35vh; border-color: orange;\"></div>","<div class=\"slotmachine\" style=\"position: absolute; top:10vh; left:55vw; width: 35vw; height: 35vh; border-color: blue;\"></div>"],"response":1,"value":0,"trial_type":"html-choice","trial_index":26,"time_elapsed":51807,"internal_node_id":"0.0-1.0-0.11","bean_trial_duration":null,"bean_duration":null,"bean_html_array":["<div class=\"slotmachine\" style=\"position: absolute; top:10vh; left:10vw; width: 35vw; height: 35vh; border-color: orange ></div>","<div class=\"slotmachine\" style=\"position: absolute; top:10vh; left:55vw; width: 35vw; height: 35vh; border-color: blue ></div>"],"bean_values":[1,0],"bean_time_after_response":2000,"bean_type":"jsPsychHtmlChoice","bean_bandits":[{"color":"orange","value":1},{"color":"blue","value":0}],"bean_value":0,"bean_score":5},{"rt":null,"stimulus":"<div style='color:white'>Score: 5</div>","response":null,"trial_type":"html-keyboard-response","trial_index":27,"time_elapsed":52809,"internal_node_id":"0.0-1.0-1.11","bean_trial_duration":1000,"bean_duration":1000,"bean_stimulus":"<div style='color:white'>Score: 5</div>","bean_choices":[],"bean_correct_key":"","bean_type":"jsPsychHtmlKeyboardResponse","bean_text":"Score: 5","bean_color":"white","bean_correct":false},{"rt":638,"stimulus":["<div class=\"slotmachine\" style=\"position: absolute; top:10vh; left:10vw; width: 35vw; height: 35vh; border-color: orange;\"></div>","<div class=\"slotmachine\" style=\"position: absolute; top:10vh; left:55vw; width: 35vw; height: 35vh; border-color: blue;\"></div>"],"response":1,"value":1,"trial_type":"html-choice","trial_index":28,"time_elapsed":55448,"internal_node_id":"0.0-1.0-0.12","bean_trial_duration":null,"bean_duration":null,"bean_html_array":["<div class=\"slotmachine\" style=\"position: absolute; top:10vh; left:10vw; width: 35vw; height: 35vh; border-color: orange ></div>","<div class=\"slotmachine\" style=\"position: absolute; top:10vh; left:55vw; width: 35vw; height: 35vh; border-color: blue ></div>"],"bean_values":[1,1],"bean_time_after_response":2000,"bean_type":"jsPsychHtmlChoice","bean_bandits":[{"color":"orange","value":1},{"color":"blue","value":1}],"bean_value":1,"bean_score":6},{"rt":null,"stimulus":"<div style='color:white'>Score: 6</div>","response":null,"trial_type":"html-keyboard-response","trial_index":29,"time_elapsed":56457,"internal_node_id":"0.0-1.0-1.12","bean_trial_duration":1000,"bean_duration":1000,"bean_stimulus":"<div style='color:white'>Score: 6</div>","bean_choices":[],"bean_correct_key":"","bean_type":"jsPsychHtmlKeyboardResponse","bean_text":"Score: 6","bean_color":"white","bean_correct":false},{"rt":650,"stimulus":["<div class=\"slotmachine\" style=\"position: absolute; top:10vh; left:10vw; width: 35vw; height: 35vh; border-color: orange;\"></div>","<div class=\"slotmachine\" style=\"position: absolute; top:10vh; left:55vw; width: 35vw; height: 35vh; border-color: blue;\"></div>"],"response":1,"value":0,"trial_type":"html-choice","trial_index":30,"time_elapsed":59125,"internal_node_id":"0.0-1.0-0.13","bean_trial_duration":null,"bean_duration":null,"bean_html_array":["<div class=\"slotmachine\" style=\"position: absolute; top:10vh; left:10vw; width: 35vw; height: 35vh; border-color: orange ></div>","<div class=\"slotmachine\" style=\"position: absolute; top:10vh; left:55vw; width: 35vw; height: 35vh; border-color: blue ></div>"],"bean_values":[1,0],"bean_time_after_response":2000,"bean_type":"jsPsychHtmlChoice","bean_bandits":[{"color":"orange","value":1},{"color":"blue","value":0}],"bean_value":0,"bean_score":6},{"rt":null,"stimulus":"<div style='color:white'>Score: 6</div>","response":null,"trial_type":"html-keyboard-response","trial_index":31,"time_elapsed":60139,"internal_node_id":"0.0-1.0-1.13","bean_trial_duration":1000,"bean_duration":1000,"bean_stimulus":"<div style='color:white'>Score: 6</div>","bean_choices":[],"bean_correct_key":"","bean_type":"jsPsychHtmlKeyboardResponse","bean_text":"Score: 6","bean_color":"white","bean_correct":false},{"rt":510,"stimulus":["<div class=\"slotmachine\" style=\"position: absolute; top:10vh; left:10vw; width: 35vw; height: 35vh; border-color: orange;\"></div>","<div class=\"slotmachine\" style=\"position: absolute; top:10vh; left:55vw; width: 35vw; height: 35vh; border-color: blue;\"></div>"],"response":0,"value":1,"trial_type":"html-choice","trial_index":32,"time_elapsed":62800,"internal_node_id":"0.0-1.0-0.14","bean_trial_duration":null,"bean_duration":null,"bean_html_array":["<div class=\"slotmachine\" style=\"position: absolute; top:10vh; left:10vw; width: 35vw; height: 35vh; border-color: orange ></div>","<div class=\"slotmachine\" style=\"position: absolute; top:10vh; left:55vw; width: 35vw; height: 35vh; border-color: blue ></div>"],"bean_values":[1,0],"bean_time_after_response":2000,"bean_type":"jsPsychHtmlChoice","bean_bandits":[{"color":"orange","value":1},{"color":"blue","value":0}],"bean_value":1,"bean_score":7},{"rt":null,"stimulus":"<div style='color:white'>Score: 7</div>","response":null,"trial_type":"html-keyboard-response","trial_index":33,"time_elapsed":63810,"internal_node_id":"0.0-1.0-1.14","bean_trial_duration":1000,"bean_duration":1000,"bean_stimulus":"<div style='color:white'>Score: 7</div>","bean_choices":[],"bean_correct_key":"","bean_type":"jsPsychHtmlKeyboardResponse","bean_text":"Score: 7","bean_color":"white","bean_correct":false},{"rt":736,"stimulus":["<div class=\"slotmachine\" style=\"position: absolute; top:10vh; left:10vw; width: 35vw; height: 35vh; border-color: orange;\"></div>","<div class=\"slotmachine\" style=\"position: absolute; top:10vh; left:55vw; width: 35vw; height: 35vh; border-color: blue;\"></div>"],"response":0,"value":1,"trial_type":"html-choice","trial_index":34,"time_elapsed":66548,"internal_node_id":"0.0-1.0-0.15","bean_trial_duration":null,"bean_duration":null,"bean_html_array":["<div class=\"slotmachine\" style=\"position: absolute; top:10vh; left:10vw; width: 35vw; height: 35vh; border-color: orange ></div>","<div class=\"slotmachine\" style=\"position: absolute; top:10vh; left:55vw; width: 35vw; height: 35vh; border-color: blue ></div>"],"bean_values":[1,0],"bean_time_after_response":2000,"bean_type":"jsPsychHtmlChoice","bean_bandits":[{"color":"orange","value":1},{"color":"blue","value":0}],"bean_value":1,"bean_score":8},{"rt":null,"stimulus":"<div style='color:white'>Score: 8</div>","response":null,"trial_type":"html-keyboard-response","trial_index":35,"time_elapsed":67551,"internal_node_id":"0.0-1.0-1.15","bean_trial_duration":1000,"bean_duration":1000,"bean_stimulus":"<div style='color:white'>Score: 8</div>","bean_choices":[],"bean_correct_key":"","bean_type":"jsPsychHtmlKeyboardResponse","bean_text":"Score: 8","bean_color":"white","bean_correct":false},{"rt":665,"stimulus":["<div class=\"slotmachine\" style=\"position: absolute; top:10vh; left:10vw; width: 35vw; height: 35vh; border-color: orange;\"></div>","<div class=\"slotmachine\" style=\"position: absolute; top:10vh; left:55vw; width: 35vw; height: 35vh; border-color: blue;\"></div>"],"response":0,"value":0,"trial_type":"html-choice","trial_index":36,"time_elapsed":70220,"internal_node_id":"0.0-1.0-0.16","bean_trial_duration":null,"bean_duration":null,"bean_html_array":["<div class=\"slotmachine\" style=\"position: absolute; top:10vh; left:10vw; width: 35vw; height: 35vh; border-color: orange ></div>","<div class=\"slotmachine\" style=\"position: absolute; top:10vh; left:55vw; width: 35vw; height: 35vh; border-color: blue ></div>"],"bean_values":[0,0],"bean_time_after_response":2000,"bean_type":"jsPsychHtmlChoice","bean_bandits":[{"color":"orange","value":0},{"color":"blue","value":0}],"bean_value":0,"bean_score":8},{"rt":null,"stimulus":"<div style='color:white'>Score: 8</div>","response":null,"trial_type":"html-keyboard-response","trial_index":37,"time_elapsed":71223,"internal_node_id":"0.0-1.0-1.16","bean_trial_duration":1000,"bean_duration":1000,"bean_stimulus":"<div style='color:white'>Score: 8</div>","bean_choices":[],"bean_correct_key":"","bean_type":"jsPsychHtmlKeyboardResponse","bean_text":"Score: 8","bean_color":"white","bean_correct":false},{"rt":633,"stimulus":["<div class=\"slotmachine\" style=\"position: absolute; top:10vh; left:10vw; width: 35vw; height: 35vh; border-color: orange;\"></div>","<div class=\"slotmachine\" style=\"position: absolute; top:10vh; left:55vw; width: 35vw; height: 35vh; border-color: blue;\"></div>"],"response":0,"value":1,"trial_type":"html-choice","trial_index":38,"time_elapsed":73860,"internal_node_id":"0.0-1.0-0.17","bean_trial_duration":null,"bean_duration":null,"bean_html_array":["<div class=\"slotmachine\" style=\"position: absolute; top:10vh; left:10vw; width: 35vw; height: 35vh; border-color: orange ></div>","<div class=\"slotmachine\" style=\"position: absolute; top:10vh; left:55vw; width: 35vw; height: 35vh; border-color: blue ></div>"],"bean_values":[1,0],"bean_time_after_response":2000,"bean_type":"jsPsychHtmlChoice","bean_bandits":[{"color":"orange","value":1},{"color":"blue","value":0}],"bean_value":1,"bean_score":9},{"rt":null,"stimulus":"<div style='color:white'>Score: 9</div>","response":null,"trial_type":"html-keyboard-response","trial_index":39,"time_elapsed":74873,"internal_node_id":"0.0-1.0-1.17","bean_trial_duration":1000,"bean_duration":1000,"bean_stimulus":"<div style='color:white'>Score: 9</div>","bean_choices":[],"bean_correct_key":"","bean_type":"jsPsychHtmlKeyboardResponse","bean_text":"Score: 9","bean_color":"white","bean_correct":false},{"rt":810,"stimulus":["<div class=\"slotmachine\" style=\"position: absolute; top:10vh; left:10vw; width: 35vw; height: 35vh; border-color: orange;\"></div>","<div class=\"slotmachine\" style=\"position: absolute; top:10vh; left:55vw; width: 35vw; height: 35vh; border-color: blue;\"></div>"],"response":0,"value":1,"trial_type":"html-choice","trial_index":40,"time_elapsed":77835,"internal_node_id":"0.0-1.0-0.18","bean_trial_duration":null,"bean_duration":null,"bean_html_array":["<div class=\"slotmachine\" style=\"position: absolute; top:10vh; left:10vw; width: 35vw; height: 35vh; border-color: orange ></div>","<div class=\"slotmachine\" style=\"position: absolute; top:10vh; left:55vw; width: 35vw; height: 35vh; border-color: blue ></div>"],"bean_values":[1,1],"bean_time_after_response":2000,"bean_type":"jsPsychHtmlChoice","bean_bandits":[{"color":"orange","value":1},{"color":"blue","value":1}],"bean_value":1,"bean_score":10},{"rt":null,"stimulus":"<div style='color:white'>Score: 10</div>","response":null,"trial_type":"html-keyboard-response","trial_index":41,"time_elapsed":78842,"internal_node_id":"0.0-1.0-1.18","bean_trial_duration":1000,"bean_duration":1000,"bean_stimulus":"<div style='color:white'>Score: 10</div>","bean_choices":[],"bean_correct_key":"","bean_type":"jsPsychHtmlKeyboardResponse","bean_text":"Score: 10","bean_color":"white","bean_correct":false},{"rt":675,"stimulus":["<div class=\"slotmachine\" style=\"position: absolute; top:10vh; left:10vw; width: 35vw; height: 35vh; border-color: orange;\"></div>","<div class=\"slotmachine\" style=\"position: absolute; top:10vh; left:55vw; width: 35vw; height: 35vh; border-color: blue;\"></div>"],"response":0,"value":1,"trial_type":"html-choice","trial_index":42,"time_elapsed":81526,"internal_node_id":"0.0-1.0-0.19","bean_trial_duration":null,"bean_duration":null,"bean_html_array":["<div class=\"slotmachine\" style=\"position: absolute; top:10vh; left:10vw; width: 35vw; height: 35vh; border-color: orange ></div>","<div class=\"slotmachine\" style=\"position: absolute; top:10vh; left:55vw; width: 35vw; height: 35vh; border-color: blue ></div>"],"bean_values":[1,0],"bean_time_after_response":2000,"bean_type":"jsPsychHtmlChoice","bean_bandits":[{"color":"orange","value":1},{"color":"blue","value":0}],"bean_value":1,"bean_score":11},{"rt":null,"stimulus":"<div style='color:white'>Score: 11</div>","response":null,"trial_type":"html-keyboard-response","trial_index":43,"time_elapsed":82530,"internal_node_id":"0.0-1.0-1.19","bean_trial_duration":1000,"bean_duration":1000,"bean_stimulus":"<div style='color:white'>Score: 11</div>","bean_choices":[],"bean_correct_key":"","bean_type":"jsPsychHtmlKeyboardResponse","bean_text":"Score: 11","bean_color":"white","bean_correct":false},{"rt":821,"stimulus":["<div class=\"slotmachine\" style=\"position: absolute; top:10vh; left:10vw; width: 35vw; height: 35vh; border-color: orange;\"></div>","<div class=\"slotmachine\" style=\"position: absolute; top:10vh; left:55vw; width: 35vw; height: 35vh; border-color: blue;\"></div>"],"response":0,"value":1,"trial_type":"html-choice","trial_index":44,"time_elapsed":85355,"internal_node_id":"0.0-1.0-0.20","bean_trial_duration":null,"bean_duration":null,"bean_html_array":["<div class=\"slotmachine\" style=\"position: absolute; top:10vh; left:10vw; width: 35vw; height: 35vh; border-color: orange ></div>","<div class=\"slotmachine\" style=\"position: absolute; top:10vh; left:55vw; width: 35vw; height: 35vh; border-color: blue ></div>"],"bean_values":[1,0],"bean_time_after_response":2000,"bean_type":"jsPsychHtmlChoice","bean_bandits":[{"color":"orange","value":1},{"color":"blue","value":0}],"bean_value":1,"bean_score":12},{"rt":null,"stimulus":"<div style='color:white'>Score: 12</div>","response":null,"trial_type":"html-keyboard-response","trial_index":45,"time_elapsed":86361,"internal_node_id":"0.0-1.0-1.20","bean_trial_duration":1000,"bean_duration":1000,"bean_stimulus":"<div style='color:white'>Score: 12</div>","bean_choices":[],"bean_correct_key":"","bean_type":"jsPsychHtmlKeyboardResponse","bean_text":"Score: 12","bean_color":"white","bean_correct":false},{"rt":1012,"stimulus":["<div class=\"slotmachine\" style=\"position: absolute; top:10vh; left:10vw; width: 35vw; height: 35vh; border-color: orange;\"></div>","<div class=\"slotmachine\" style=\"position: absolute; top:10vh; left:55vw; width: 35vw; height: 35vh; border-color: blue;\"></div>"],"response":0,"value":1,"trial_type":"html-choice","trial_index":46,"time_elapsed":89389,"internal_node_id":"0.0-1.0-0.21","bean_trial_duration":null,"bean_duration":null,"bean_html_array":["<div class=\"slotmachine\" style=\"position: absolute; top:10vh; left:10vw; width: 35vw; height: 35vh; border-color: orange ></div>","<div class=\"slotmachine\" style=\"position: absolute; top:10vh; left:55vw; width: 35vw; height: 35vh; border-color: blue ></div>"],"bean_values":[1,0],"bean_time_after_response":2000,"bean_type":"jsPsychHtmlChoice","bean_bandits":[{"color":"orange","value":1},{"color":"blue","value":0}],"bean_value":1,"bean_score":13},{"rt":null,"stimulus":"<div style='color:white'>Score: 13</div>","response":null,"trial_type":"html-keyboard-response","trial_index":47,"time_elapsed":90392,"internal_node_id":"0.0-1.0-1.21","bean_trial_duration":1000,"bean_duration":1000,"bean_stimulus":"<div style='color:white'>Score: 13</div>","bean_choices":[],"bean_correct_key":"","bean_type":"jsPsychHtmlKeyboardResponse","bean_text":"Score: 13","bean_color":"white","bean_correct":false},{"rt":701,"stimulus":["<div class=\"slotmachine\" style=\"position: absolute; top:10vh; left:10vw; width: 35vw; height: 35vh; border-color: orange;\"></div>","<div class=\"slotmachine\" style=\"position: absolute; top:10vh; left:55vw; width: 35vw; height: 35vh; border-color: blue;\"></div>"],"response":0,"value":0,"trial_type":"html-choice","trial_index":48,"time_elapsed":93100,"internal_node_id":"0.0-1.0-0.22","bean_trial_duration":null,"bean_duration":null,"bean_html_array":["<div class=\"slotmachine\" style=\"position: absolute; top:10vh; left:10vw; width: 35vw; height: 35vh; border-color: orange ></div>","<div class=\"slotmachine\" style=\"position: absolute; top:10vh; left:55vw; width: 35vw; height: 35vh; border-color: blue ></div>"],"bean_values":[0,1],"bean_time_after_response":2000,"bean_type":"jsPsychHtmlChoice","bean_bandits":[{"color":"orange","value":0},{"color":"blue","value":1}],"bean_value":0,"bean_score":13},{"rt":null,"stimulus":"<div style='color:white'>Score: 13</div>","response":null,"trial_type":"html-keyboard-response","trial_index":49,"time_elapsed":94108,"internal_node_id":"0.0-1.0-1.22","bean_trial_duration":1000,"bean_duration":1000,"bean_stimulus":"<div style='color:white'>Score: 13</div>","bean_choices":[],"bean_correct_key":"","bean_type":"jsPsychHtmlKeyboardResponse","bean_text":"Score: 13","bean_color":"white","bean_correct":false},{"rt":702,"stimulus":["<div class=\"slotmachine\" style=\"position: absolute; top:10vh; left:10vw; width: 35vw; height: 35vh; border-color: orange;\"></div>","<div class=\"slotmachine\" style=\"position: absolute; top:10vh; left:55vw; width: 35vw; height: 35vh; border-color: blue;\"></div>"],"response":0,"value":1,"trial_type":"html-choice","trial_index":50,"time_elapsed":96820,"internal_node_id":"0.0-1.0-0.23","bean_trial_duration":null,"bean_duration":null,"bean_html_array":["<div class=\"slotmachine\" style=\"position: absolute; top:10vh; left:10vw; width: 35vw; height: 35vh; border-color: orange ></div>","<div class=\"slotmachine\" style=\"position: absolute; top:10vh; left:55vw; width: 35vw; height: 35vh; border-color: blue ></div>"],"bean_values":[1,1],"bean_time_after_response":2000,"bean_type":"jsPsychHtmlChoice","bean_bandits":[{"color":"orange","value":1},{"color":"blue","value":1}],"bean_value":1,"bean_score":14},{"rt":null,"stimulus":"<div style='color:white'>Score: 14</div>","response":null,"trial_type":"html-keyboard-response","trial_index":51,"time_elapsed":97823,"internal_node_id":"0.0-1.0-1.23","bean_trial_duration":1000,"bean_duration":1000,"bean_stimulus":"<div style='color:white'>Score: 14</div>","bean_choices":[],"bean_correct_key":"","bean_type":"jsPsychHtmlKeyboardResponse","bean_text":"Score: 14","bean_color":"white","bean_correct":false},{"rt":716,"stimulus":["<div class=\"slotmachine\" style=\"position: absolute; top:10vh; left:10vw; width: 35vw; height: 35vh; border-color: orange;\"></div>","<div class=\"slotmachine\" style=\"position: absolute; top:10vh; left:55vw; width: 35vw; height: 35vh; border-color: blue;\"></div>"],"response":0,"value":1,"trial_type":"html-choice","trial_index":52,"time_elapsed":100553,"internal_node_id":"0.0-1.0-0.24","bean_trial_duration":null,"bean_duration":null,"bean_html_array":["<div class=\"slotmachine\" style=\"position: absolute; top:10vh; left:10vw; width: 35vw; height: 35vh; border-color: orange ></div>","<div class=\"slotmachine\" style=\"position: absolute; top:10vh; left:55vw; width: 35vw; height: 35vh; border-color: blue ></div>"],"bean_values":[1,0],"bean_time_after_response":2000,"bean_type":"jsPsychHtmlChoice","bean_bandits":[{"color":"orange","value":1},{"color":"blue","value":0}],"bean_value":1,"bean_score":15},{"rt":null,"stimulus":"<div style='color:white'>Score: 15</div>","response":null,"trial_type":"html-keyboard-response","trial_index":53,"time_elapsed":101568,"internal_node_id":"0.0-1.0-1.24","bean_trial_duration":1000,"bean_duration":1000,"bean_stimulus":"<div style='color:white'>Score: 15</div>","bean_choices":[],"bean_correct_key":"","bean_type":"jsPsychHtmlKeyboardResponse","bean_text":"Score: 15","bean_color":"white","bean_correct":false},{"rt":667,"stimulus":["<div class=\"slotmachine\" style=\"position: absolute; top:10vh; left:10vw; width: 35vw; height: 35vh; border-color: orange;\"></div>","<div class=\"slotmachine\" style=\"position: absolute; top:10vh; left:55vw; width: 35vw; height: 35vh; border-color: blue;\"></div>"],"response":0,"value":1,"trial_type":"html-choice","trial_index":54,"time_elapsed":104238,"internal_node_id":"0.0-1.0-0.25","bean_trial_duration":null,"bean_duration":null,"bean_html_array":["<div class=\"slotmachine\" style=\"position: absolute; top:10vh; left:10vw; width: 35vw; height: 35vh; border-color: orange ></div>","<div class=\"slotmachine\" style=\"position: absolute; top:10vh; left:55vw; width: 35vw; height: 35vh; border-color: blue ></div>"],"bean_values":[1,0],"bean_time_after_response":2000,"bean_type":"jsPsychHtmlChoice","bean_bandits":[{"color":"orange","value":1},{"color":"blue","value":0}],"bean_value":1,"bean_score":16},{"rt":null,"stimulus":"<div style='color:white'>Score: 16</div>","response":null,"trial_type":"html-keyboard-response","trial_index":55,"time_elapsed":105254,"internal_node_id":"0.0-1.0-1.25","bean_trial_duration":1000,"bean_duration":1000,"bean_stimulus":"<div style='color:white'>Score: 16</div>","bean_choices":[],"bean_correct_key":"","bean_type":"jsPsychHtmlKeyboardResponse","bean_text":"Score: 16","bean_color":"white","bean_correct":false},{"rt":676,"stimulus":["<div class=\"slotmachine\" style=\"position: absolute; top:10vh; left:10vw; width: 35vw; height: 35vh; border-color: orange;\"></div>","<div class=\"slotmachine\" style=\"position: absolute; top:10vh; left:55vw; width: 35vw; height: 35vh; border-color: blue;\"></div>"],"response":0,"value":1,"trial_type":"html-choice","trial_index":56,"time_elapsed":108148,"internal_node_id":"0.0-1.0-0.26","bean_trial_duration":null,"bean_duration":null,"bean_html_array":["<div class=\"slotmachine\" style=\"position: absolute; top:10vh; left:10vw; width: 35vw; height: 35vh; border-color: orange ></div>","<div class=\"slotmachine\" style=\"position: absolute; top:10vh; left:55vw; width: 35vw; height: 35vh; border-color: blue ></div>"],"bean_values":[1,1],"bean_time_after_response":2000,"bean_type":"jsPsychHtmlChoice","bean_bandits":[{"color":"orange","value":1},{"color":"blue","value":1}],"bean_value":1,"bean_score":17},{"rt":null,"stimulus":"<div style='color:white'>Score: 17</div>","response":null,"trial_type":"html-keyboard-response","trial_index":57,"time_elapsed":109159,"internal_node_id":"0.0-1.0-1.26","bean_trial_duration":1000,"bean_duration":1000,"bean_stimulus":"<div style='color:white'>Score: 17</div>","bean_choices":[],"bean_correct_key":"","bean_type":"jsPsychHtmlKeyboardResponse","bean_text":"Score: 17","bean_color":"white","bean_correct":false},{"rt":623,"stimulus":["<div class=\"slotmachine\" style=\"position: absolute; top:10vh; left:10vw; width: 35vw; height: 35vh; border-color: orange;\"></div>","<div class=\"slotmachine\" style=\"position: absolute; top:10vh; left:55vw; width: 35vw; height: 35vh; border-color: blue;\"></div>"],"response":0,"value":0,"trial_type":"html-choice","trial_index":58,"time_elapsed":111799,"internal_node_id":"0.0-1.0-0.27","bean_trial_duration":null,"bean_duration":null,"bean_html_array":["<div class=\"slotmachine\" style=\"position: absolute; top:10vh; left:10vw; width: 35vw; height: 35vh; border-color: orange ></div>","<div class=\"slotmachine\" style=\"position: absolute; top:10vh; left:55vw; width: 35vw; height: 35vh; border-color: blue ></div>"],"bean_values":[0,0],"bean_time_after_response":2000,"bean_type":"jsPsychHtmlChoice","bean_bandits":[{"color":"orange","value":0},{"color":"blue","value":0}],"bean_value":0,"bean_score":17},{"rt":null,"stimulus":"<div style='color:white'>Score: 17</div>","response":null,"trial_type":"html-keyboard-response","trial_index":59,"time_elapsed":112806,"internal_node_id":"0.0-1.0-1.27","bean_trial_duration":1000,"bean_duration":1000,"bean_stimulus":"<div style='color:white'>Score: 17</div>","bean_choices":[],"bean_correct_key":"","bean_type":"jsPsychHtmlKeyboardResponse","bean_text":"Score: 17","bean_color":"white","bean_correct":false},{"rt":604,"stimulus":["<div class=\"slotmachine\" style=\"position: absolute; top:10vh; left:10vw; width: 35vw; height: 35vh; border-color: orange;\"></div>","<div class=\"slotmachine\" style=\"position: absolute; top:10vh; left:55vw; width: 35vw; height: 35vh; border-color: blue;\"></div>"],"response":0,"value":1,"trial_type":"html-choice","trial_index":60,"time_elapsed":115416,"internal_node_id":"0.0-1.0-0.28","bean_trial_duration":null,"bean_duration":null,"bean_html_array":["<div class=\"slotmachine\" style=\"position: absolute; top:10vh; left:10vw; width: 35vw; height: 35vh; border-color: orange ></div>","<div class=\"slotmachine\" style=\"position: absolute; top:10vh; left:55vw; width: 35vw; height: 35vh; border-color: blue ></div>"],"bean_values":[1,0],"bean_time_after_response":2000,"bean_type":"jsPsychHtmlChoice","bean_bandits":[{"color":"orange","value":1},{"color":"blue","value":0}],"bean_value":1,"bean_score":18},{"rt":null,"stimulus":"<div style='color:white'>Score: 18</div>","response":null,"trial_type":"html-keyboard-response","trial_index":61,"time_elapsed":116419,"internal_node_id":"0.0-1.0-1.28","bean_trial_duration":1000,"bean_duration":1000,"bean_stimulus":"<div style='color:white'>Score: 18</div>","bean_choices":[],"bean_correct_key":"","bean_type":"jsPsychHtmlKeyboardResponse","bean_text":"Score: 18","bean_color":"white","bean_correct":false},{"rt":715,"stimulus":["<div class=\"slotmachine\" style=\"position: absolute; top:10vh; left:10vw; width: 35vw; height: 35vh; border-color: orange;\"></div>","<div class=\"slotmachine\" style=\"position: absolute; top:10vh; left:55vw; width: 35vw; height: 35vh; border-color: blue;\"></div>"],"response":0,"value":0,"trial_type":"html-choice","trial_index":62,"time_elapsed":119145,"internal_node_id":"0.0-1.0-0.29","bean_trial_duration":null,"bean_duration":null,"bean_html_array":["<div class=\"slotmachine\" style=\"position: absolute; top:10vh; left:10vw; width: 35vw; height: 35vh; border-color: orange ></div>","<div class=\"slotmachine\" style=\"position: absolute; top:10vh; left:55vw; width: 35vw; height: 35vh; border-color: blue ></div>"],"bean_values":[0,0],"bean_time_after_response":2000,"bean_type":"jsPsychHtmlChoice","bean_bandits":[{"color":"orange","value":0},{"color":"blue","value":0}],"bean_value":0,"bean_score":18},{"rt":null,"stimulus":"<div style='color:white'>Score: 18</div>","response":null,"trial_type":"html-keyboard-response","trial_index":63,"time_elapsed":120161,"internal_node_id":"0.0-1.0-1.29","bean_trial_duration":1000,"bean_duration":1000,"bean_stimulus":"<div style='color:white'>Score: 18</div>","bean_choices":[],"bean_correct_key":"","bean_type":"jsPsychHtmlKeyboardResponse","bean_text":"Score: 18","bean_color":"white","bean_correct":false},{"rt":647,"stimulus":["<div class=\"slotmachine\" style=\"position: absolute; top:10vh; left:10vw; width: 35vw; height: 35vh; border-color: orange;\"></div>","<div class=\"slotmachine\" style=\"position: absolute; top:10vh; left:55vw; width: 35vw; height: 35vh; border-color: blue;\"></div>"],"response":1,"value":0,"trial_type":"html-choice","trial_index":64,"time_elapsed":122961,"internal_node_id":"0.0-1.0-0.30","bean_trial_duration":null,"bean_duration":null,"bean_html_array":["<div class=\"slotmachine\" style=\"position: absolute; top:10vh; left:10vw; width: 35vw; height: 35vh; border-color: orange ></div>","<div class=\"slotmachine\" style=\"position: absolute; top:10vh; left:55vw; width: 35vw; height: 35vh; border-color: blue ></div>"],"bean_values":[0,0],"bean_time_after_response":2000,"bean_type":"jsPsychHtmlChoice","bean_bandits":[{"color":"orange","value":0},{"color":"blue","value":0}],"bean_value":0,"bean_score":18},{"rt":null,"stimulus":"<div style='color:white'>Score: 18</div>","response":null,"trial_type":"html-keyboard-response","trial_index":65,"time_elapsed":123977,"internal_node_id":"0.0-1.0-1.30","bean_trial_duration":1000,"bean_duration":1000,"bean_stimulus":"<div style='color:white'>Score: 18</div>","bean_choices":[],"bean_correct_key":"","bean_type":"jsPsychHtmlKeyboardResponse","bean_text":"Score: 18","bean_color":"white","bean_correct":false},{"rt":649,"stimulus":["<div class=\"slotmachine\" style=\"position: absolute; top:10vh; left:10vw; width: 35vw; height: 35vh; border-color: orange;\"></div>","<div class=\"slotmachine\" style=\"position: absolute; top:10vh; left:55vw; width: 35vw; height: 35vh; border-color: blue;\"></div>"],"response":1,"value":1,"trial_type":"html-choice","trial_index":66,"time_elapsed":126627,"internal_node_id":"0.0-1.0-0.31","bean_trial_duration":null,"bean_duration":null,"bean_html_array":["<div class=\"slotmachine\" style=\"position: absolute; top:10vh; left:10vw; width: 35vw; height: 35vh; border-color: orange ></div>","<div class=\"slotmachine\" style=\"position: absolute; top:10vh; left:55vw; width: 35vw; height: 35vh; border-color: blue ></div>"],"bean_values":[1,1],"bean_time_after_response":2000,"bean_type":"jsPsychHtmlChoice","bean_bandits":[{"color":"orange","value":1},{"color":"blue","value":1}],"bean_value":1,"bean_score":19},{"rt":null,"stimulus":"<div style='color:white'>Score: 19</div>","response":null,"trial_type":"html-keyboard-response","trial_index":67,"time_elapsed":127641,"internal_node_id":"0.0-1.0-1.31","bean_trial_duration":1000,"bean_duration":1000,"bean_stimulus":"<div style='color:white'>Score: 19</div>","bean_choices":[],"bean_correct_key":"","bean_type":"jsPsychHtmlKeyboardResponse","bean_text":"Score: 19","bean_color":"white","bean_correct":false},{"rt":655,"stimulus":["<div class=\"slotmachine\" style=\"position: absolute; top:10vh; left:10vw; width: 35vw; height: 35vh; border-color: orange;\"></div>","<div class=\"slotmachine\" style=\"position: absolute; top:10vh; left:55vw; width: 35vw; height: 35vh; border-color: blue;\"></div>"],"response":1,"value":0,"trial_type":"html-choice","trial_index":68,"time_elapsed":130296,"internal_node_id":"0.0-1.0-0.32","bean_trial_duration":null,"bean_duration":null,"bean_html_array":["<div class=\"slotmachine\" style=\"position: absolute; top:10vh; left:10vw; width: 35vw; height: 35vh; border-color: orange ></div>","<div class=\"slotmachine\" style=\"position: absolute; top:10vh; left:55vw; width: 35vw; height: 35vh; border-color: blue ></div>"],"bean_values":[0,0],"bean_time_after_response":2000,"bean_type":"jsPsychHtmlChoice","bean_bandits":[{"color":"orange","value":0},{"color":"blue","value":0}],"bean_value":0,"bean_score":19},{"rt":null,"stimulus":"<div style='color:white'>Score: 19</div>","response":null,"trial_type":"html-keyboard-response","trial_index":69,"time_elapsed":131312,"internal_node_id":"0.0-1.0-1.32","bean_trial_duration":1000,"bean_duration":1000,"bean_stimulus":"<div style='color:white'>Score: 19</div>","bean_choices":[],"bean_correct_key":"","bean_type":"jsPsychHtmlKeyboardResponse","bean_text":"Score: 19","bean_color":"white","bean_correct":false},{"rt":665,"stimulus":["<div class=\"slotmachine\" style=\"position: absolute; top:10vh; left:10vw; width: 35vw; height: 35vh; border-color: orange;\"></div>","<div class=\"slotmachine\" style=\"position: absolute; top:10vh; left:55vw; width: 35vw; height: 35vh; border-color: blue;\"></div>"],"response":1,"value":1,"trial_type":"html-choice","trial_index":70,"time_elapsed":133980,"internal_node_id":"0.0-1.0-0.33","bean_trial_duration":null,"bean_duration":null,"bean_html_array":["<div class=\"slotmachine\" style=\"position: absolute; top:10vh; left:10vw; width: 35vw; height: 35vh; border-color: orange ></div>","<div class=\"slotmachine\" style=\"position: absolute; top:10vh; left:55vw; width: 35vw; height: 35vh; border-color: blue ></div>"],"bean_values":[1,1],"bean_time_after_response":2000,"bean_type":"jsPsychHtmlChoice","bean_bandits":[{"color":"orange","value":1},{"color":"blue","value":1}],"bean_value":1,"bean_score":20},{"rt":null,"stimulus":"<div style='color:white'>Score: 20</div>","response":null,"trial_type":"html-keyboard-response","trial_index":71,"time_elapsed":134995,"internal_node_id":"0.0-1.0-1.33","bean_trial_duration":1000,"bean_duration":1000,"bean_stimulus":"<div style='color:white'>Score: 20</div>","bean_choices":[],"bean_correct_key":"","bean_type":"jsPsychHtmlKeyboardResponse","bean_text":"Score: 20","bean_color":"white","bean_correct":false},{"rt":644,"stimulus":["<div class=\"slotmachine\" style=\"position: absolute; top:10vh; left:10vw; width: 35vw; height: 35vh; border-color: orange;\"></div>","<div class=\"slotmachine\" style=\"position: absolute; top:10vh; left:55vw; width: 35vw; height: 35vh; border-color: blue;\"></div>"],"response":1,"value":0,"trial_type":"html-choice","trial_index":72,"time_elapsed":137653,"internal_node_id":"0.0-1.0-0.34","bean_trial_duration":null,"bean_duration":null,"bean_html_array":["<div class=\"slotmachine\" style=\"position: absolute; top:10vh; left:10vw; width: 35vw; height: 35vh; border-color: orange ></div>","<div class=\"slotmachine\" style=\"position: absolute; top:10vh; left:55vw; width: 35vw; height: 35vh; border-color: blue ></div>"],"bean_values":[1,0],"bean_time_after_response":2000,"bean_type":"jsPsychHtmlChoice","bean_bandits":[{"color":"orange","value":1},{"color":"blue","value":0}],"bean_value":0,"bean_score":20},{"rt":null,"stimulus":"<div style='color:white'>Score: 20</div>","response":null,"trial_type":"html-keyboard-response","trial_index":73,"time_elapsed":138665,"internal_node_id":"0.0-1.0-1.34","bean_trial_duration":1000,"bean_duration":1000,"bean_stimulus":"<div style='color:white'>Score: 20</div>","bean_choices":[],"bean_correct_key":"","bean_type":"jsPsychHtmlKeyboardResponse","bean_text":"Score: 20","bean_color":"white","bean_correct":false},{"rt":634,"stimulus":["<div class=\"slotmachine\" style=\"position: absolute; top:10vh; left:10vw; width: 35vw; height: 35vh; border-color: orange;\"></div>","<div class=\"slotmachine\" style=\"position: absolute; top:10vh; left:55vw; width: 35vw; height: 35vh; border-color: blue;\"></div>"],"response":0,"value":0,"trial_type":"html-choice","trial_index":74,"time_elapsed":141314,"internal_node_id":"0.0-1.0-0.35","bean_trial_duration":null,"bean_duration":null,"bean_html_array":["<div class=\"slotmachine\" style=\"position: absolute; top:10vh; left:10vw; width: 35vw; height: 35vh; border-color: orange ></div>","<div class=\"slotmachine\" style=\"position: absolute; top:10vh; left:55vw; width: 35vw; height: 35vh; border-color: blue ></div>"],"bean_values":[0,0],"bean_time_after_response":2000,"bean_type":"jsPsychHtmlChoice","bean_bandits":[{"color":"orange","value":0},{"color":"blue","value":0}],"bean_value":0,"bean_score":20},{"rt":null,"stimulus":"<div style='color:white'>Score: 20</div>","response":null,"trial_type":"html-keyboard-response","trial_index":75,"time_elapsed":142322,"internal_node_id":"0.0-1.0-1.35","bean_trial_duration":1000,"bean_duration":1000,"bean_stimulus":"<div style='color:white'>Score: 20</div>","bean_choices":[],"bean_correct_key":"","bean_type":"jsPsychHtmlKeyboardResponse","bean_text":"Score: 20","bean_color":"white","bean_correct":false},{"rt":600,"stimulus":["<div class=\"slotmachine\" style=\"position: absolute; top:10vh; left:10vw; width: 35vw; height: 35vh; border-color: orange;\"></div>","<div class=\"slotmachine\" style=\"position: absolute; top:10vh; left:55vw; width: 35vw; height: 35vh; border-color: blue;\"></div>"],"response":0,"value":1,"trial_type":"html-choice","trial_index":76,"time_elapsed":144933,"internal_node_id":"0.0-1.0-0.36","bean_trial_duration":null,"bean_duration":null,"bean_html_array":["<div class=\"slotmachine\" style=\"position: absolute; top:10vh; left:10vw; width: 35vw; height: 35vh; border-color: orange ></div>","<div class=\"slotmachine\" style=\"position: absolute; top:10vh; left:55vw; width: 35vw; height: 35vh; border-color: blue ></div>"],"bean_values":[1,0],"bean_time_after_response":2000,"bean_type":"jsPsychHtmlChoice","bean_bandits":[{"color":"orange","value":1},{"color":"blue","value":0}],"bean_value":1,"bean_score":21},{"rt":null,"stimulus":"<div style='color:white'>Score: 21</div>","response":null,"trial_type":"html-keyboard-response","trial_index":77,"time_elapsed":145948,"internal_node_id":"0.0-1.0-1.36","bean_trial_duration":1000,"bean_duration":1000,"bean_stimulus":"<div style='color:white'>Score: 21</div>","bean_choices":[],"bean_correct_key":"","bean_type":"jsPsychHtmlKeyboardResponse","bean_text":"Score: 21","bean_color":"white","bean_correct":false},{"rt":792,"stimulus":["<div class=\"slotmachine\" style=\"position: absolute; top:10vh; left:10vw; width: 35vw; height: 35vh; border-color: orange;\"></div>","<div class=\"slotmachine\" style=\"position: absolute; top:10vh; left:55vw; width: 35vw; height: 35vh; border-color: blue;\"></div>"],"response":0,"value":1,"trial_type":"html-choice","trial_index":78,"time_elapsed":148756,"internal_node_id":"0.0-1.0-0.37","bean_trial_duration":null,"bean_duration":null,"bean_html_array":["<div class=\"slotmachine\" style=\"position: absolute; top:10vh; left:10vw; width: 35vw; height: 35vh; border-color: orange ></div>","<div class=\"slotmachine\" style=\"position: absolute; top:10vh; left:55vw; width: 35vw; height: 35vh; border-color: blue ></div>"],"bean_values":[1,0],"bean_time_after_response":2000,"bean_type":"jsPsychHtmlChoice","bean_bandits":[{"color":"orange","value":1},{"color":"blue","value":0}],"bean_value":1,"bean_score":22},{"rt":null,"stimulus":"<div style='color:white'>Score: 22</div>","response":null,"trial_type":"html-keyboard-response","trial_index":79,"time_elapsed":149769,"internal_node_id":"0.0-1.0-1.37","bean_trial_duration":1000,"bean_duration":1000,"bean_stimulus":"<div style='color:white'>Score: 22</div>","bean_choices":[],"bean_correct_key":"","bean_type":"jsPsychHtmlKeyboardResponse","bean_text":"Score: 22","bean_color":"white","bean_correct":false},{"rt":824,"stimulus":["<div class=\"slotmachine\" style=\"position: absolute; top:10vh; left:10vw; width: 35vw; height: 35vh; border-color: orange;\"></div>","<div class=\"slotmachine\" style=\"position: absolute; top:10vh; left:55vw; width: 35vw; height: 35vh; border-color: blue;\"></div>"],"response":0,"value":0,"trial_type":"html-choice","trial_index":80,"time_elapsed":152599,"internal_node_id":"0.0-1.0-0.38","bean_trial_duration":null,"bean_duration":null,"bean_html_array":["<div class=\"slotmachine\" style=\"position: absolute; top:10vh; left:10vw; width: 35vw; height: 35vh; border-color: orange ></div>","<div class=\"slotmachine\" style=\"position: absolute; top:10vh; left:55vw; width: 35vw; height: 35vh; border-color: blue ></div>"],"bean_values":[0,1],"bean_time_after_response":2000,"bean_type":"jsPsychHtmlChoice","bean_bandits":[{"color":"orange","value":0},{"color":"blue","value":1}],"bean_value":0,"bean_score":22},{"rt":null,"stimulus":"<div style='color:white'>Score: 22</div>","response":null,"trial_type":"html-keyboard-response","trial_index":81,"time_elapsed":153612,"internal_node_id":"0.0-1.0-1.38","bean_trial_duration":1000,"bean_duration":1000,"bean_stimulus":"<div style='color:white'>Score: 22</div>","bean_choices":[],"bean_correct_key":"","bean_type":"jsPsychHtmlKeyboardResponse","bean_text":"Score: 22","bean_color":"white","bean_correct":false},{"rt":976,"stimulus":["<div class=\"slotmachine\" style=\"position: absolute; top:10vh; left:10vw; width: 35vw; height: 35vh; border-color: orange;\"></div>","<div class=\"slotmachine\" style=\"position: absolute; top:10vh; left:55vw; width: 35vw; height: 35vh; border-color: blue;\"></div>"],"response":0,"value":1,"trial_type":"html-choice","trial_index":82,"time_elapsed":156627,"internal_node_id":"0.0-1.0-0.39","bean_trial_duration":null,"bean_duration":null,"bean_html_array":["<div class=\"slotmachine\" style=\"position: absolute; top:10vh; left:10vw; width: 35vw; height: 35vh; border-color: orange ></div>","<div class=\"slotmachine\" style=\"position: absolute; top:10vh; left:55vw; width: 35vw; height: 35vh; border-color: blue ></div>"],"bean_values":[1,0],"bean_time_after_response":2000,"bean_type":"jsPsychHtmlChoice","bean_bandits":[{"color":"orange","value":1},{"color":"blue","value":0}],"bean_value":1,"bean_score":23},{"rt":null,"stimulus":"<div style='color:white'>Score: 23</div>","response":null,"trial_type":"html-keyboard-response","trial_index":83,"time_elapsed":157638,"internal_node_id":"0.0-1.0-1.39","bean_trial_duration":1000,"bean_duration":1000,"bean_stimulus":"<div style='color:white'>Score: 23</div>","bean_choices":[],"bean_correct_key":"","bean_type":"jsPsychHtmlKeyboardResponse","bean_text":"Score: 23","bean_color":"white","bean_correct":false},{"rt":808,"stimulus":["<div class=\"slotmachine\" style=\"position: absolute; top:10vh; left:10vw; width: 35vw; height: 35vh; border-color: orange;\"></div>","<div class=\"slotmachine\" style=\"position: absolute; top:10vh; left:55vw; width: 35vw; height: 35vh; border-color: blue;\"></div>"],"response":0,"value":0,"trial_type":"html-choice","trial_index":84,"time_elapsed":160460,"internal_node_id":"0.0-1.0-0.40","bean_trial_duration":null,"bean_duration":null,"bean_html_array":["<div class=\"slotmachine\" style=\"position: absolute; top:10vh; left:10vw; width: 35vw; height: 35vh; border-color: orange ></div>","<div class=\"slotmachine\" style=\"position: absolute; top:10vh; left:55vw; width: 35vw; height: 35vh; border-color: blue ></div>"],"bean_values":[0,1],"bean_time_after_response":2000,"bean_type":"jsPsychHtmlChoice","bean_bandits":[{"color":"orange","value":0},{"color":"blue","value":1}],"bean_value":0,"bean_score":23},{"rt":null,"stimulus":"<div style='color:white'>Score: 23</div>","response":null,"trial_type":"html-keyboard-response","trial_index":85,"time_elapsed":161475,"internal_node_id":"0.0-1.0-1.40","bean_trial_duration":1000,"bean_duration":1000,"bean_stimulus":"<div style='color:white'>Score: 23</div>","bean_choices":[],"bean_correct_key":"","bean_type":"jsPsychHtmlKeyboardResponse","bean_text":"Score: 23","bean_color":"white","bean_correct":false},{"rt":916,"stimulus":["<div class=\"slotmachine\" style=\"position: absolute; top:10vh; left:10vw; width: 35vw; height: 35vh; border-color: orange;\"></div>","<div class=\"slotmachine\" style=\"position: absolute; top:10vh; left:55vw; width: 35vw; height: 35vh; border-color: blue;\"></div>"],"response":0,"value":1,"trial_type":"html-choice","trial_index":86,"time_elapsed":164396,"internal_node_id":"0.0-1.0-0.41","bean_trial_duration":null,"bean_duration":null,"bean_html_array":["<div class=\"slotmachine\" style=\"position: absolute; top:10vh; left:10vw; width: 35vw; height: 35vh; border-color: orange ></div>","<div class=\"slotmachine\" style=\"position: absolute; top:10vh; left:55vw; width: 35vw; height: 35vh; border-color: blue ></div>"],"bean_values":[1,0],"bean_time_after_response":2000,"bean_type":"jsPsychHtmlChoice","bean_bandits":[{"color":"orange","value":1},{"color":"blue","value":0}],"bean_value":1,"bean_score":24},{"rt":null,"stimulus":"<div style='color:white'>Score: 24</div>","response":null,"trial_type":"html-keyboard-response","trial_index":87,"time_elapsed":165402,"internal_node_id":"0.0-1.0-1.41","bean_trial_duration":1000,"bean_duration":1000,"bean_stimulus":"<div style='color:white'>Score: 24</div>","bean_choices":[],"bean_correct_key":"","bean_type":"jsPsychHtmlKeyboardResponse","bean_text":"Score: 24","bean_color":"white","bean_correct":false},{"rt":776,"stimulus":["<div class=\"slotmachine\" style=\"position: absolute; top:10vh; left:10vw; width: 35vw; height: 35vh; border-color: orange;\"></div>","<div class=\"slotmachine\" style=\"position: absolute; top:10vh; left:55vw; width: 35vw; height: 35vh; border-color: blue;\"></div>"],"response":0,"value":1,"trial_type":"html-choice","trial_index":88,"time_elapsed":168426,"internal_node_id":"0.0-1.0-0.42","bean_trial_duration":null,"bean_duration":null,"bean_html_array":["<div class=\"slotmachine\" style=\"position: absolute; top:10vh; left:10vw; width: 35vw; height: 35vh; border-color: orange ></div>","<div class=\"slotmachine\" style=\"position: absolute; top:10vh; left:55vw; width: 35vw; height: 35vh; border-color: blue ></div>"],"bean_values":[1,0],"bean_time_after_response":2000,"bean_type":"jsPsychHtmlChoice","bean_bandits":[{"color":"orange","value":1},{"color":"blue","value":0}],"bean_value":1,"bean_score":25},{"rt":null,"stimulus":"<div style='color:white'>Score: 25</div>","response":null,"trial_type":"html-keyboard-response","trial_index":89,"time_elapsed":169440,"internal_node_id":"0.0-1.0-1.42","bean_trial_duration":1000,"bean_duration":1000,"bean_stimulus":"<div style='color:white'>Score: 25</div>","bean_choices":[],"bean_correct_key":"","bean_type":"jsPsychHtmlKeyboardResponse","bean_text":"Score: 25","bean_color":"white","bean_correct":false},{"rt":868,"stimulus":["<div class=\"slotmachine\" style=\"position: absolute; top:10vh; left:10vw; width: 35vw; height: 35vh; border-color: orange;\"></div>","<div class=\"slotmachine\" style=\"position: absolute; top:10vh; left:55vw; width: 35vw; height: 35vh; border-color: blue;\"></div>"],"response":0,"value":1,"trial_type":"html-choice","trial_index":90,"time_elapsed":172457,"internal_node_id":"0.0-1.0-0.43","bean_trial_duration":null,"bean_duration":null,"bean_html_array":["<div class=\"slotmachine\" style=\"position: absolute; top:10vh; left:10vw; width: 35vw; height: 35vh; border-color: orange ></div>","<div class=\"slotmachine\" style=\"position: absolute; top:10vh; left:55vw; width: 35vw; height: 35vh; border-color: blue ></div>"],"bean_values":[1,0],"bean_time_after_response":2000,"bean_type":"jsPsychHtmlChoice","bean_bandits":[{"color":"orange","value":1},{"color":"blue","value":0}],"bean_value":1,"bean_score":26},{"rt":null,"stimulus":"<div style='color:white'>Score: 26</div>","response":null,"trial_type":"html-keyboard-response","trial_index":91,"time_elapsed":173460,"internal_node_id":"0.0-1.0-1.43","bean_trial_duration":1000,"bean_duration":1000,"bean_stimulus":"<div style='color:white'>Score: 26</div>","bean_choices":[],"bean_correct_key":"","bean_type":"jsPsychHtmlKeyboardResponse","bean_text":"Score: 26","bean_color":"white","bean_correct":false},{"rt":882,"stimulus":["<div class=\"slotmachine\" style=\"position: absolute; top:10vh; left:10vw; width: 35vw; height: 35vh; border-color: orange;\"></div>","<div class=\"slotmachine\" style=\"position: absolute; top:10vh; left:55vw; width: 35vw; height: 35vh; border-color: blue;\"></div>"],"response":0,"value":1,"trial_type":"html-choice","trial_index":92,"time_elapsed":176489,"internal_node_id":"0.0-1.0-0.44","bean_trial_duration":null,"bean_duration":null,"bean_html_array":["<div class=\"slotmachine\" style=\"position: absolute; top:10vh; left:10vw; width: 35vw; height: 35vh; border-color: orange ></div>","<div class=\"slotmachine\" style=\"position: absolute; top:10vh; left:55vw; width: 35vw; height: 35vh; border-color: blue ></div>"],"bean_values":[1,0],"bean_time_after_response":2000,"bean_type":"jsPsychHtmlChoice","bean_bandits":[{"color":"orange","value":1},{"color":"blue","value":0}],"bean_value":1,"bean_score":27},{"rt":null,"stimulus":"<div style='color:white'>Score: 27</div>","response":null,"trial_type":"html-keyboard-response","trial_index":93,"time_elapsed":177500,"internal_node_id":"0.0-1.0-1.44","bean_trial_duration":1000,"bean_duration":1000,"bean_stimulus":"<div style='color:white'>Score: 27</div>","bean_choices":[],"bean_correct_key":"","bean_type":"jsPsychHtmlKeyboardResponse","bean_text":"Score: 27","bean_color":"white","bean_correct":false},{"rt":851,"stimulus":["<div class=\"slotmachine\" style=\"position: absolute; top:10vh; left:10vw; width: 35vw; height: 35vh; border-color: orange;\"></div>","<div class=\"slotmachine\" style=\"position: absolute; top:10vh; left:55vw; width: 35vw; height: 35vh; border-color: blue;\"></div>"],"response":0,"value":1,"trial_type":"html-choice","trial_index":94,"time_elapsed":180521,"internal_node_id":"0.0-1.0-0.45","bean_trial_duration":null,"bean_duration":null,"bean_html_array":["<div class=\"slotmachine\" style=\"position: absolute; top:10vh; left:10vw; width: 35vw; height: 35vh; border-color: orange ></div>","<div class=\"slotmachine\" style=\"position: absolute; top:10vh; left:55vw; width: 35vw; height: 35vh; border-color: blue ></div>"],"bean_values":[1,1],"bean_time_after_response":2000,"bean_type":"jsPsychHtmlChoice","bean_bandits":[{"color":"orange","value":1},{"color":"blue","value":1}],"bean_value":1,"bean_score":28},{"rt":null,"stimulus":"<div style='color:white'>Score: 28</div>","response":null,"trial_type":"html-keyboard-response","trial_index":95,"time_elapsed":181535,"internal_node_id":"0.0-1.0-1.45","bean_trial_duration":1000,"bean_duration":1000,"bean_stimulus":"<div style='color:white'>Score: 28</div>","bean_choices":[],"bean_correct_key":"","bean_type":"jsPsychHtmlKeyboardResponse","bean_text":"Score: 28","bean_color":"white","bean_correct":false},{"rt":808,"stimulus":["<div class=\"slotmachine\" style=\"position: absolute; top:10vh; left:10vw; width: 35vw; height: 35vh; border-color: orange;\"></div>","<div class=\"slotmachine\" style=\"position: absolute; top:10vh; left:55vw; width: 35vw; height: 35vh; border-color: blue;\"></div>"],"response":0,"value":1,"trial_type":"html-choice","trial_index":96,"time_elapsed":184355,"internal_node_id":"0.0-1.0-0.46","bean_trial_duration":null,"bean_duration":null,"bean_html_array":["<div class=\"slotmachine\" style=\"position: absolute; top:10vh; left:10vw; width: 35vw; height: 35vh; border-color: orange ></div>","<div class=\"slotmachine\" style=\"position: absolute; top:10vh; left:55vw; width: 35vw; height: 35vh; border-color: blue ></div>"],"bean_values":[1,0],"bean_time_after_response":2000,"bean_type":"jsPsychHtmlChoice","bean_bandits":[{"color":"orange","value":1},{"color":"blue","value":0}],"bean_value":1,"bean_score":29},{"rt":null,"stimulus":"<div style='color:white'>Score: 29</div>","response":null,"trial_type":"html-keyboard-response","trial_index":97,"time_elapsed":185358,"internal_node_id":"0.0-1.0-1.46","bean_trial_duration":1000,"bean_duration":1000,"bean_stimulus":"<div style='color:white'>Score: 29</div>","bean_choices":[],"bean_correct_key":"","bean_type":"jsPsychHtmlKeyboardResponse","bean_text":"Score: 29","bean_color":"white","bean_correct":false},{"rt":763,"stimulus":["<div class=\"slotmachine\" style=\"position: absolute; top:10vh; left:10vw; width: 35vw; height: 35vh; border-color: orange;\"></div>","<div class=\"slotmachine\" style=\"position: absolute; top:10vh; left:55vw; width: 35vw; height: 35vh; border-color: blue;\"></div>"],"response":0,"value":1,"trial_type":"html-choice","trial_index":98,"time_elapsed":188130,"internal_node_id":"0.0-1.0-0.47","bean_trial_duration":null,"bean_duration":null,"bean_html_array":["<div class=\"slotmachine\" style=\"position: absolute; top:10vh; left:10vw; width: 35vw; height: 35vh; border-color: orange ></div>","<div class=\"slotmachine\" style=\"position: absolute; top:10vh; left:55vw; width: 35vw; height: 35vh; border-color: blue ></div>"],"bean_values":[1,0],"bean_time_after_response":2000,"bean_type":"jsPsychHtmlChoice","bean_bandits":[{"color":"orange","value":1},{"color":"blue","value":0}],"bean_value":1,"bean_score":30},{"rt":null,"stimulus":"<div style='color:white'>Score: 30</div>","response":null,"trial_type":"html-keyboard-response","trial_index":99,"time_elapsed":189133,"internal_node_id":"0.0-1.0-1.47","bean_trial_duration":1000,"bean_duration":1000,"bean_stimulus":"<div style='color:white'>Score: 30</div>","bean_choices":[],"bean_correct_key":"","bean_type":"jsPsychHtmlKeyboardResponse","bean_text":"Score: 30","bean_color":"white","bean_correct":false},{"rt":756,"stimulus":["<div class=\"slotmachine\" style=\"position: absolute; top:10vh; left:10vw; width: 35vw; height: 35vh; border-color: orange;\"></div>","<div class=\"slotmachine\" style=\"position: absolute; top:10vh; left:55vw; width: 35vw; height: 35vh; border-color: blue;\"></div>"],"response":0,"value":1,"trial_type":"html-choice","trial_index":100,"time_elapsed":191893,"internal_node_id":"0.0-1.0-0.48","bean_trial_duration":null,"bean_duration":null,"bean_html_array":["<div class=\"slotmachine\" style=\"position: absolute; top:10vh; left:10vw; width: 35vw; height: 35vh; border-color: orange ></div>","<div class=\"slotmachine\" style=\"position: absolute; top:10vh; left:55vw; width: 35vw; height: 35vh; border-color: blue ></div>"],"bean_values":[1,0],"bean_time_after_response":2000,"bean_type":"jsPsychHtmlChoice","bean_bandits":[{"color":"orange","value":1},{"color":"blue","value":0}],"bean_value":1,"bean_score":31},{"rt":null,"stimulus":"<div style='color:white'>Score: 31</div>","response":null,"trial_type":"html-keyboard-response","trial_index":101,"time_elapsed":192896,"internal_node_id":"0.0-1.0-1.48","bean_trial_duration":1000,"bean_duration":1000,"bean_stimulus":"<div style='color:white'>Score: 31</div>","bean_choices":[],"bean_correct_key":"","bean_type":"jsPsychHtmlKeyboardResponse","bean_text":"Score: 31","bean_color":"white","bean_correct":false},{"rt":727,"stimulus":["<div class=\"slotmachine\" style=\"position: absolute; top:10vh; left:10vw; width: 35vw; height: 35vh; border-color: orange;\"></div>","<div class=\"slotmachine\" style=\"position: absolute; top:10vh; left:55vw; width: 35vw; height: 35vh; border-color: blue;\"></div>"],"response":0,"value":1,"trial_type":"html-choice","trial_index":102,"time_elapsed":195635,"internal_node_id":"0.0-1.0-0.49","bean_trial_duration":null,"bean_duration":null,"bean_html_array":["<div class=\"slotmachine\" style=\"position: absolute; top:10vh; left:10vw; width: 35vw; height: 35vh; border-color: orange ></div>","<div class=\"slotmachine\" style=\"position: absolute; top:10vh; left:55vw; width: 35vw; height: 35vh; border-color: blue ></div>"],"bean_values":[1,0],"bean_time_after_response":2000,"bean_type":"jsPsychHtmlChoice","bean_bandits":[{"color":"orange","value":1},{"color":"blue","value":0}],"bean_value":1,"bean_score":32},{"rt":null,"stimulus":"<div style='color:white'>Score: 32</div>","response":null,"trial_type":"html-keyboard-response","trial_index":103,"time_elapsed":196649,"internal_node_id":"0.0-1.0-1.49","bean_trial_duration":1000,"bean_duration":1000,"bean_stimulus":"<div style='color:white'>Score: 32</div>","bean_choices":[],"bean_correct_key":"","bean_type":"jsPsychHtmlKeyboardResponse","bean_text":"Score: 32","bean_color":"white","bean_correct":false},{"rt":934,"stimulus":["<div class=\"slotmachine\" style=\"position: absolute; top:10vh; left:10vw; width: 35vw; height: 35vh; border-color: orange;\"></div>","<div class=\"slotmachine\" style=\"position: absolute; top:10vh; left:55vw; width: 35vw; height: 35vh; border-color: blue;\"></div>"],"response":0,"value":0,"trial_type":"html-choice","trial_index":104,"time_elapsed":199599,"internal_node_id":"0.0-1.0-0.50","bean_trial_duration":null,"bean_duration":null,"bean_html_array":["<div class=\"slotmachine\" style=\"position: absolute; top:10vh; left:10vw; width: 35vw; height: 35vh; border-color: orange ></div>","<div class=\"slotmachine\" style=\"position: absolute; top:10vh; left:55vw; width: 35vw; height: 35vh; border-color: blue ></div>"],"bean_values":[0,0],"bean_time_after_response":2000,"bean_type":"jsPsychHtmlChoice","bean_bandits":[{"color":"orange","value":0},{"color":"blue","value":0}],"bean_value":0,"bean_score":32},{"rt":null,"stimulus":"<div style='color:white'>Score: 32</div>","response":null,"trial_type":"html-keyboard-response","trial_index":105,"time_elapsed":200605,"internal_node_id":"0.0-1.0-1.50","bean_trial_duration":1000,"bean_duration":1000,"bean_stimulus":"<div style='color:white'>Score: 32</div>","bean_choices":[],"bean_correct_key":"","bean_type":"jsPsychHtmlKeyboardResponse","bean_text":"Score: 32","bean_color":"white","bean_correct":false},{"rt":706,"stimulus":["<div class=\"slotmachine\" style=\"position: absolute; top:10vh; left:10vw; width: 35vw; height: 35vh; border-color: orange;\"></div>","<div class=\"slotmachine\" style=\"position: absolute; top:10vh; left:55vw; width: 35vw; height: 35vh; border-color: blue;\"></div>"],"response":0,"value":0,"trial_type":"html-choice","trial_index":106,"time_elapsed":203328,"internal_node_id":"0.0-1.0-0.51","bean_trial_duration":null,"bean_duration":null,"bean_html_array":["<div class=\"slotmachine\" style=\"position: absolute; top:10vh; left:10vw; width: 35vw; height: 35vh; border-color: orange ></div>","<div class=\"slotmachine\" style=\"position: absolute; top:10vh; left:55vw; width: 35vw; height: 35vh; border-color: blue ></div>"],"bean_values":[0,0],"bean_time_after_response":2000,"bean_type":"jsPsychHtmlChoice","bean_bandits":[{"color":"orange","value":0},{"color":"blue","value":0}],"bean_value":0,"bean_score":32},{"rt":null,"stimulus":"<div style='color:white'>Score: 32</div>","response":null,"trial_type":"html-keyboard-response","trial_index":107,"time_elapsed":204344,"internal_node_id":"0.0-1.0-1.51","bean_trial_duration":1000,"bean_duration":1000,"bean_stimulus":"<div style='color:white'>Score: 32</div>","bean_choices":[],"bean_correct_key":"","bean_type":"jsPsychHtmlKeyboardResponse","bean_text":"Score: 32","bean_color":"white","bean_correct":false},{"rt":803,"stimulus":["<div class=\"slotmachine\" style=\"position: absolute; top:10vh; left:10vw; width: 35vw; height: 35vh; border-color: orange;\"></div>","<div class=\"slotmachine\" style=\"position: absolute; top:10vh; left:55vw; width: 35vw; height: 35vh; border-color: blue;\"></div>"],"response":1,"value":1,"trial_type":"html-choice","trial_index":108,"time_elapsed":207151,"internal_node_id":"0.0-1.0-0.52","bean_trial_duration":null,"bean_duration":null,"bean_html_array":["<div class=\"slotmachine\" style=\"position: absolute; top:10vh; left:10vw; width: 35vw; height: 35vh; border-color: orange ></div>","<div class=\"slotmachine\" style=\"position: absolute; top:10vh; left:55vw; width: 35vw; height: 35vh; border-color: blue ></div>"],"bean_values":[1,1],"bean_time_after_response":2000,"bean_type":"jsPsychHtmlChoice","bean_bandits":[{"color":"orange","value":1},{"color":"blue","value":1}],"bean_value":1,"bean_score":33},{"rt":null,"stimulus":"<div style='color:white'>Score: 33</div>","response":null,"trial_type":"html-keyboard-response","trial_index":109,"time_elapsed":208157,"internal_node_id":"0.0-1.0-1.52","bean_trial_duration":1000,"bean_duration":1000,"bean_stimulus":"<div style='color:white'>Score: 33</div>","bean_choices":[],"bean_correct_key":"","bean_type":"jsPsychHtmlKeyboardResponse","bean_text":"Score: 33","bean_color":"white","bean_correct":false},{"rt":718,"stimulus":["<div class=\"slotmachine\" style=\"position: absolute; top:10vh; left:10vw; width: 35vw; height: 35vh; border-color: orange;\"></div>","<div class=\"slotmachine\" style=\"position: absolute; top:10vh; left:55vw; width: 35vw; height: 35vh; border-color: blue;\"></div>"],"response":1,"value":1,"trial_type":"html-choice","trial_index":110,"time_elapsed":210889,"internal_node_id":"0.0-1.0-0.53","bean_trial_duration":null,"bean_duration":null,"bean_html_array":["<div class=\"slotmachine\" style=\"position: absolute; top:10vh; left:10vw; width: 35vw; height: 35vh; border-color: orange ></div>","<div class=\"slotmachine\" style=\"position: absolute; top:10vh; left:55vw; width: 35vw; height: 35vh; border-color: blue ></div>"],"bean_values":[0,1],"bean_time_after_response":2000,"bean_type":"jsPsychHtmlChoice","bean_bandits":[{"color":"orange","value":0},{"color":"blue","value":1}],"bean_value":1,"bean_score":34},{"rt":null,"stimulus":"<div style='color:white'>Score: 34</div>","response":null,"trial_type":"html-keyboard-response","trial_index":111,"time_elapsed":211894,"internal_node_id":"0.0-1.0-1.53","bean_trial_duration":1000,"bean_duration":1000,"bean_stimulus":"<div style='color:white'>Score: 34</div>","bean_choices":[],"bean_correct_key":"","bean_type":"jsPsychHtmlKeyboardResponse","bean_text":"Score: 34","bean_color":"white","bean_correct":false},{"rt":710,"stimulus":["<div class=\"slotmachine\" style=\"position: absolute; top:10vh; left:10vw; width: 35vw; height: 35vh; border-color: orange;\"></div>","<div class=\"slotmachine\" style=\"position: absolute; top:10vh; left:55vw; width: 35vw; height: 35vh; border-color: blue;\"></div>"],"response":1,"value":1,"trial_type":"html-choice","trial_index":112,"time_elapsed":214669,"internal_node_id":"0.0-1.0-0.54","bean_trial_duration":null,"bean_duration":null,"bean_html_array":["<div class=\"slotmachine\" style=\"position: absolute; top:10vh; left:10vw; width: 35vw; height: 35vh; border-color: orange ></div>","<div class=\"slotmachine\" style=\"position: absolute; top:10vh; left:55vw; width: 35vw; height: 35vh; border-color: blue ></div>"],"bean_values":[0,1],"bean_time_after_response":2000,"bean_type":"jsPsychHtmlChoice","bean_bandits":[{"color":"orange","value":0},{"color":"blue","value":1}],"bean_value":1,"bean_score":35},{"rt":null,"stimulus":"<div style='color:white'>Score: 35</div>","response":null,"trial_type":"html-keyboard-response","trial_index":113,"time_elapsed":215680,"internal_node_id":"0.0-1.0-1.54","bean_trial_duration":1000,"bean_duration":1000,"bean_stimulus":"<div style='color:white'>Score: 35</div>","bean_choices":[],"bean_correct_key":"","bean_type":"jsPsychHtmlKeyboardResponse","bean_text":"Score: 35","bean_color":"white","bean_correct":false},{"rt":890,"stimulus":["<div class=\"slotmachine\" style=\"position: absolute; top:10vh; left:10vw; width: 35vw; height: 35vh; border-color: orange;\"></div>","<div class=\"slotmachine\" style=\"position: absolute; top:10vh; left:55vw; width: 35vw; height: 35vh; border-color: blue;\"></div>"],"response":1,"value":0,"trial_type":"html-choice","trial_index":114,"time_elapsed":218584,"internal_node_id":"0.0-1.0-0.55","bean_trial_duration":null,"bean_duration":null,"bean_html_array":["<div class=\"slotmachine\" style=\"position: absolute; top:10vh; left:10vw; width: 35vw; height: 35vh; border-color: orange ></div>","<div class=\"slotmachine\" style=\"position: absolute; top:10vh; left:55vw; width: 35vw; height: 35vh; border-color: blue ></div>"],"bean_values":[0,0],"bean_time_after_response":2000,"bean_type":"jsPsychHtmlChoice","bean_bandits":[{"color":"orange","value":0},{"color":"blue","value":0}],"bean_value":0,"bean_score":35},{"rt":null,"stimulus":"<div style='color:white'>Score: 35</div>","response":null,"trial_type":"html-keyboard-response","trial_index":115,"time_elapsed":219680,"internal_node_id":"0.0-1.0-1.55","bean_trial_duration":1000,"bean_duration":1000,"bean_stimulus":"<div style='color:white'>Score: 35</div>","bean_choices":[],"bean_correct_key":"","bean_type":"jsPsychHtmlKeyboardResponse","bean_text":"Score: 35","bean_color":"white","bean_correct":false},{"rt":866,"stimulus":["<div class=\"slotmachine\" style=\"position: absolute; top:10vh; left:10vw; width: 35vw; height: 35vh; border-color: orange;\"></div>","<div class=\"slotmachine\" style=\"position: absolute; top:10vh; left:55vw; width: 35vw; height: 35vh; border-color: blue;\"></div>"],"response":1,"value":0,"trial_type":"html-choice","trial_index":116,"time_elapsed":222631,"internal_node_id":"0.0-1.0-0.56","bean_trial_duration":null,"bean_duration":null,"bean_html_array":["<div class=\"slotmachine\" style=\"position: absolute; top:10vh; left:10vw; width: 35vw; height: 35vh; border-color: orange ></div>","<div class=\"slotmachine\" style=\"position: absolute; top:10vh; left:55vw; width: 35vw; height: 35vh; border-color: blue ></div>"],"bean_values":[0,0],"bean_time_after_response":2000,"bean_type":"jsPsychHtmlChoice","bean_bandits":[{"color":"orange","value":0},{"color":"blue","value":0}],"bean_value":0,"bean_score":35},{"rt":null,"stimulus":"<div style='color:white'>Score: 35</div>","response":null,"trial_type":"html-keyboard-response","trial_index":117,"time_elapsed":223640,"internal_node_id":"0.0-1.0-1.56","bean_trial_duration":1000,"bean_duration":1000,"bean_stimulus":"<div style='color:white'>Score: 35</div>","bean_choices":[],"bean_correct_key":"","bean_type":"jsPsychHtmlKeyboardResponse","bean_text":"Score: 35","bean_color":"white","bean_correct":false},{"rt":999,"stimulus":["<div class=\"slotmachine\" style=\"position: absolute; top:10vh; left:10vw; width: 35vw; height: 35vh; border-color: orange;\"></div>","<div class=\"slotmachine\" style=\"position: absolute; top:10vh; left:55vw; width: 35vw; height: 35vh; border-color: blue;\"></div>"],"response":1,"value":1,"trial_type":"html-choice","trial_index":118,"time_elapsed":226713,"internal_node_id":"0.0-1.0-0.57","bean_trial_duration":null,"bean_duration":null,"bean_html_array":["<div class=\"slotmachine\" style=\"position: absolute; top:10vh; left:10vw; width: 35vw; height: 35vh; border-color: orange ></div>","<div class=\"slotmachine\" style=\"position: absolute; top:10vh; left:55vw; width: 35vw; height: 35vh; border-color: blue ></div>"],"bean_values":[0,1],"bean_time_after_response":2000,"bean_type":"jsPsychHtmlChoice","bean_bandits":[{"color":"orange","value":0},{"color":"blue","value":1}],"bean_value":1,"bean_score":36},{"rt":null,"stimulus":"<div style='color:white'>Score: 36</div>","response":null,"trial_type":"html-keyboard-response","trial_index":119,"time_elapsed":227726,"internal_node_id":"0.0-1.0-1.57","bean_trial_duration":1000,"bean_duration":1000,"bean_stimulus":"<div style='color:white'>Score: 36</div>","bean_choices":[],"bean_correct_key":"","bean_type":"jsPsychHtmlKeyboardResponse","bean_text":"Score: 36","bean_color":"white","bean_correct":false},{"rt":736,"stimulus":["<div class=\"slotmachine\" style=\"position: absolute; top:10vh; left:10vw; width: 35vw; height: 35vh; border-color: orange;\"></div>","<div class=\"slotmachine\" style=\"position: absolute; top:10vh; left:55vw; width: 35vw; height: 35vh; border-color: blue;\"></div>"],"response":1,"value":1,"trial_type":"html-choice","trial_index":120,"time_elapsed":230474,"internal_node_id":"0.0-1.0-0.58","bean_trial_duration":null,"bean_duration":null,"bean_html_array":["<div class=\"slotmachine\" style=\"position: absolute; top:10vh; left:10vw; width: 35vw; height: 35vh; border-color: orange ></div>","<div class=\"slotmachine\" style=\"position: absolute; top:10vh; left:55vw; width: 35vw; height: 35vh; border-color: blue ></div>"],"bean_values":[0,1],"bean_time_after_response":2000,"bean_type":"jsPsychHtmlChoice","bean_bandits":[{"color":"orange","value":0},{"color":"blue","value":1}],"bean_value":1,"bean_score":37},{"rt":null,"stimulus":"<div style='color:white'>Score: 37</div>","response":null,"trial_type":"html-keyboard-response","trial_index":121,"time_elapsed":231477,"internal_node_id":"0.0-1.0-1.58","bean_trial_duration":1000,"bean_duration":1000,"bean_stimulus":"<div style='color:white'>Score: 37</div>","bean_choices":[],"bean_correct_key":"","bean_type":"jsPsychHtmlKeyboardResponse","bean_text":"Score: 37","bean_color":"white","bean_correct":false},{"rt":881,"stimulus":["<div class=\"slotmachine\" style=\"position: absolute; top:10vh; left:10vw; width: 35vw; height: 35vh; border-color: orange;\"></div>","<div class=\"slotmachine\" style=\"position: absolute; top:10vh; left:55vw; width: 35vw; height: 35vh; border-color: blue;\"></div>"],"response":1,"value":1,"trial_type":"html-choice","trial_index":122,"time_elapsed":234368,"internal_node_id":"0.0-1.0-0.59","bean_trial_duration":null,"bean_duration":null,"bean_html_array":["<div class=\"slotmachine\" style=\"position: absolute; top:10vh; left:10vw; width: 35vw; height: 35vh; border-color: orange ></div>","<div class=\"slotmachine\" style=\"position: absolute; top:10vh; left:55vw; width: 35vw; height: 35vh; border-color: blue ></div>"],"bean_values":[0,1],"bean_time_after_response":2000,"bean_type":"jsPsychHtmlChoice","bean_bandits":[{"color":"orange","value":0},{"color":"blue","value":1}],"bean_value":1,"bean_score":38},{"rt":null,"stimulus":"<div style='color:white'>Score: 38</div>","response":null,"trial_type":"html-keyboard-response","trial_index":123,"time_elapsed":235385,"internal_node_id":"0.0-1.0-1.59","bean_trial_duration":1000,"bean_duration":1000,"bean_stimulus":"<div style='color:white'>Score: 38</div>","bean_choices":[],"bean_correct_key":"","bean_type":"jsPsychHtmlKeyboardResponse","bean_text":"Score: 38","bean_color":"white","bean_correct":false},{"rt":894,"stimulus":["<div class=\"slotmachine\" style=\"position: absolute; top:10vh; left:10vw; width: 35vw; height: 35vh; border-color: orange;\"></div>","<div class=\"slotmachine\" style=\"position: absolute; top:10vh; left:55vw; width: 35vw; height: 35vh; border-color: blue;\"></div>"],"response":1,"value":1,"trial_type":"html-choice","trial_index":124,"time_elapsed":238394,"internal_node_id":"0.0-1.0-0.60","bean_trial_duration":null,"bean_duration":null,"bean_html_array":["<div class=\"slotmachine\" style=\"position: absolute; top:10vh; left:10vw; width: 35vw; height: 35vh; border-color: orange ></div>","<div class=\"slotmachine\" style=\"position: absolute; top:10vh; left:55vw; width: 35vw; height: 35vh; border-color: blue ></div>"],"bean_values":[1,1],"bean_time_after_response":2000,"bean_type":"jsPsychHtmlChoice","bean_bandits":[{"color":"orange","value":1},{"color":"blue","value":1}],"bean_value":1,"bean_score":39},{"rt":null,"stimulus":"<div style='color:white'>Score: 39</div>","response":null,"trial_type":"html-keyboard-response","trial_index":125,"time_elapsed":239407,"internal_node_id":"0.0-1.0-1.60","bean_trial_duration":1000,"bean_duration":1000,"bean_stimulus":"<div style='color:white'>Score: 39</div>","bean_choices":[],"bean_correct_key":"","bean_type":"jsPsychHtmlKeyboardResponse","bean_text":"Score: 39","bean_color":"white","bean_correct":false},{"rt":873,"stimulus":["<div class=\"slotmachine\" style=\"position: absolute; top:10vh; left:10vw; width: 35vw; height: 35vh; border-color: orange;\"></div>","<div class=\"slotmachine\" style=\"position: absolute; top:10vh; left:55vw; width: 35vw; height: 35vh; border-color: blue;\"></div>"],"response":1,"value":1,"trial_type":"html-choice","trial_index":126,"time_elapsed":242283,"internal_node_id":"0.0-1.0-0.61","bean_trial_duration":null,"bean_duration":null,"bean_html_array":["<div class=\"slotmachine\" style=\"position: absolute; top:10vh; left:10vw; width: 35vw; height: 35vh; border-color: orange ></div>","<div class=\"slotmachine\" style=\"position: absolute; top:10vh; left:55vw; width: 35vw; height: 35vh; border-color: blue ></div>"],"bean_values":[0,1],"bean_time_after_response":2000,"bean_type":"jsPsychHtmlChoice","bean_bandits":[{"color":"orange","value":0},{"color":"blue","value":1}],"bean_value":1,"bean_score":40},{"rt":null,"stimulus":"<div style='color:white'>Score: 40</div>","response":null,"trial_type":"html-keyboard-response","trial_index":127,"time_elapsed":243293,"internal_node_id":"0.0-1.0-1.61","bean_trial_duration":1000,"bean_duration":1000,"bean_stimulus":"<div style='color:white'>Score: 40</div>","bean_choices":[],"bean_correct_key":"","bean_type":"jsPsychHtmlKeyboardResponse","bean_text":"Score: 40","bean_color":"white","bean_correct":false},{"rt":912,"stimulus":["<div class=\"slotmachine\" style=\"position: absolute; top:10vh; left:10vw; width: 35vw; height: 35vh; border-color: orange;\"></div>","<div class=\"slotmachine\" style=\"position: absolute; top:10vh; left:55vw; width: 35vw; height: 35vh; border-color: blue;\"></div>"],"response":1,"value":0,"trial_type":"html-choice","trial_index":128,"time_elapsed":246222,"internal_node_id":"0.0-1.0-0.62","bean_trial_duration":null,"bean_duration":null,"bean_html_array":["<div class=\"slotmachine\" style=\"position: absolute; top:10vh; left:10vw; width: 35vw; height: 35vh; border-color: orange ></div>","<div class=\"slotmachine\" style=\"position: absolute; top:10vh; left:55vw; width: 35vw; height: 35vh; border-color: blue ></div>"],"bean_values":[1,0],"bean_time_after_response":2000,"bean_type":"jsPsychHtmlChoice","bean_bandits":[{"color":"orange","value":1},{"color":"blue","value":0}],"bean_value":0,"bean_score":40},{"rt":null,"stimulus":"<div style='color:white'>Score: 40</div>","response":null,"trial_type":"html-keyboard-response","trial_index":129,"time_elapsed":247228,"internal_node_id":"0.0-1.0-1.62","bean_trial_duration":1000,"bean_duration":1000,"bean_stimulus":"<div style='color:white'>Score: 40</div>","bean_choices":[],"bean_correct_key":"","bean_type":"jsPsychHtmlKeyboardResponse","bean_text":"Score: 40","bean_color":"white","bean_correct":false},{"rt":638,"stimulus":["<div class=\"slotmachine\" style=\"position: absolute; top:10vh; left:10vw; width: 35vw; height: 35vh; border-color: orange;\"></div>","<div class=\"slotmachine\" style=\"position: absolute; top:10vh; left:55vw; width: 35vw; height: 35vh; border-color: blue;\"></div>"],"response":1,"value":1,"trial_type":"html-choice","trial_index":130,"time_elapsed":249880,"internal_node_id":"0.0-1.0-0.63","bean_trial_duration":null,"bean_duration":null,"bean_html_array":["<div class=\"slotmachine\" style=\"position: absolute; top:10vh; left:10vw; width: 35vw; height: 35vh; border-color: orange ></div>","<div class=\"slotmachine\" style=\"position: absolute; top:10vh; left:55vw; width: 35vw; height: 35vh; border-color: blue ></div>"],"bean_values":[0,1],"bean_time_after_response":2000,"bean_type":"jsPsychHtmlChoice","bean_bandits":[{"color":"orange","value":0},{"color":"blue","value":1}],"bean_value":1,"bean_score":41},{"rt":null,"stimulus":"<div style='color:white'>Score: 41</div>","response":null,"trial_type":"html-keyboard-response","trial_index":131,"time_elapsed":250895,"internal_node_id":"0.0-1.0-1.63","bean_trial_duration":1000,"bean_duration":1000,"bean_stimulus":"<div style='color:white'>Score: 41</div>","bean_choices":[],"bean_correct_key":"","bean_type":"jsPsychHtmlKeyboardResponse","bean_text":"Score: 41","bean_color":"white","bean_correct":false},{"rt":708,"stimulus":["<div class=\"slotmachine\" style=\"position: absolute; top:10vh; left:10vw; width: 35vw; height: 35vh; border-color: orange;\"></div>","<div class=\"slotmachine\" style=\"position: absolute; top:10vh; left:55vw; width: 35vw; height: 35vh; border-color: blue;\"></div>"],"response":1,"value":1,"trial_type":"html-choice","trial_index":132,"time_elapsed":253610,"internal_node_id":"0.0-1.0-0.64","bean_trial_duration":null,"bean_duration":null,"bean_html_array":["<div class=\"slotmachine\" style=\"position: absolute; top:10vh; left:10vw; width: 35vw; height: 35vh; border-color: orange ></div>","<div class=\"slotmachine\" style=\"position: absolute; top:10vh; left:55vw; width: 35vw; height: 35vh; border-color: blue ></div>"],"bean_values":[0,1],"bean_time_after_response":2000,"bean_type":"jsPsychHtmlChoice","bean_bandits":[{"color":"orange","value":0},{"color":"blue","value":1}],"bean_value":1,"bean_score":42},{"rt":null,"stimulus":"<div style='color:white'>Score: 42</div>","response":null,"trial_type":"html-keyboard-response","trial_index":133,"time_elapsed":254613,"internal_node_id":"0.0-1.0-1.64","bean_trial_duration":1000,"bean_duration":1000,"bean_stimulus":"<div style='color:white'>Score: 42</div>","bean_choices":[],"bean_correct_key":"","bean_type":"jsPsychHtmlKeyboardResponse","bean_text":"Score: 42","bean_color":"white","bean_correct":false},{"rt":744,"stimulus":["<div class=\"slotmachine\" style=\"position: absolute; top:10vh; left:10vw; width: 35vw; height: 35vh; border-color: orange;\"></div>","<div class=\"slotmachine\" style=\"position: absolute; top:10vh; left:55vw; width: 35vw; height: 35vh; border-color: blue;\"></div>"],"response":1,"value":1,"trial_type":"html-choice","trial_index":134,"time_elapsed":257364,"internal_node_id":"0.0-1.0-0.65","bean_trial_duration":null,"bean_duration":null,"bean_html_array":["<div class=\"slotmachine\" style=\"position: absolute; top:10vh; left:10vw; width: 35vw; height: 35vh; border-color: orange ></div>","<div class=\"slotmachine\" style=\"position: absolute; top:10vh; left:55vw; width: 35vw; height: 35vh; border-color: blue ></div>"],"bean_values":[1,1],"bean_time_after_response":2000,"bean_type":"jsPsychHtmlChoice","bean_bandits":[{"color":"orange","value":1},{"color":"blue","value":1}],"bean_value":1,"bean_score":43},{"rt":null,"stimulus":"<div style='color:white'>Score: 43</div>","response":null,"trial_type":"html-keyboard-response","trial_index":135,"time_elapsed":258378,"internal_node_id":"0.0-1.0-1.65","bean_trial_duration":1000,"bean_duration":1000,"bean_stimulus":"<div style='color:white'>Score: 43</div>","bean_choices":[],"bean_correct_key":"","bean_type":"jsPsychHtmlKeyboardResponse","bean_text":"Score: 43","bean_color":"white","bean_correct":false},{"rt":773,"stimulus":["<div class=\"slotmachine\" style=\"position: absolute; top:10vh; left:10vw; width: 35vw; height: 35vh; border-color: orange;\"></div>","<div class=\"slotmachine\" style=\"position: absolute; top:10vh; left:55vw; width: 35vw; height: 35vh; border-color: blue;\"></div>"],"response":1,"value":1,"trial_type":"html-choice","trial_index":136,"time_elapsed":261153,"internal_node_id":"0.0-1.0-0.66","bean_trial_duration":null,"bean_duration":null,"bean_html_array":["<div class=\"slotmachine\" style=\"position: absolute; top:10vh; left:10vw; width: 35vw; height: 35vh; border-color: orange ></div>","<div class=\"slotmachine\" style=\"position: absolute; top:10vh; left:55vw; width: 35vw; height: 35vh; border-color: blue ></div>"],"bean_values":[0,1],"bean_time_after_response":2000,"bean_type":"jsPsychHtmlChoice","bean_bandits":[{"color":"orange","value":0},{"color":"blue","value":1}],"bean_value":1,"bean_score":44},{"rt":null,"stimulus":"<div style='color:white'>Score: 44</div>","response":null,"trial_type":"html-keyboard-response","trial_index":137,"time_elapsed":262157,"internal_node_id":"0.0-1.0-1.66","bean_trial_duration":1000,"bean_duration":1000,"bean_stimulus":"<div style='color:white'>Score: 44</div>","bean_choices":[],"bean_correct_key":"","bean_type":"jsPsychHtmlKeyboardResponse","bean_text":"Score: 44","bean_color":"white","bean_correct":false},{"rt":1117,"stimulus":["<div class=\"slotmachine\" style=\"position: absolute; top:10vh; left:10vw; width: 35vw; height: 35vh; border-color: orange;\"></div>","<div class=\"slotmachine\" style=\"position: absolute; top:10vh; left:55vw; width: 35vw; height: 35vh; border-color: blue;\"></div>"],"response":1,"value":0,"trial_type":"html-choice","trial_index":138,"time_elapsed":265291,"internal_node_id":"0.0-1.0-0.67","bean_trial_duration":null,"bean_duration":null,"bean_html_array":["<div class=\"slotmachine\" style=\"position: absolute; top:10vh; left:10vw; width: 35vw; height: 35vh; border-color: orange ></div>","<div class=\"slotmachine\" style=\"position: absolute; top:10vh; left:55vw; width: 35vw; height: 35vh; border-color: blue ></div>"],"bean_values":[0,0],"bean_time_after_response":2000,"bean_type":"jsPsychHtmlChoice","bean_bandits":[{"color":"orange","value":0},{"color":"blue","value":0}],"bean_value":0,"bean_score":44},{"rt":null,"stimulus":"<div style='color:white'>Score: 44</div>","response":null,"trial_type":"html-keyboard-response","trial_index":139,"time_elapsed":266292,"internal_node_id":"0.0-1.0-1.67","bean_trial_duration":1000,"bean_duration":1000,"bean_stimulus":"<div style='color:white'>Score: 44</div>","bean_choices":[],"bean_correct_key":"","bean_type":"jsPsychHtmlKeyboardResponse","bean_text":"Score: 44","bean_color":"white","bean_correct":false},{"rt":617,"stimulus":["<div class=\"slotmachine\" style=\"position: absolute; top:10vh; left:10vw; width: 35vw; height: 35vh; border-color: orange;\"></div>","<div class=\"slotmachine\" style=\"position: absolute; top:10vh; left:55vw; width: 35vw; height: 35vh; border-color: blue;\"></div>"],"response":1,"value":1,"trial_type":"html-choice","trial_index":140,"time_elapsed":268911,"internal_node_id":"0.0-1.0-0.68","bean_trial_duration":null,"bean_duration":null,"bean_html_array":["<div class=\"slotmachine\" style=\"position: absolute; top:10vh; left:10vw; width: 35vw; height: 35vh; border-color: orange ></div>","<div class=\"slotmachine\" style=\"position: absolute; top:10vh; left:55vw; width: 35vw; height: 35vh; border-color: blue ></div>"],"bean_values":[0,1],"bean_time_after_response":2000,"bean_type":"jsPsychHtmlChoice","bean_bandits":[{"color":"orange","value":0},{"color":"blue","value":1}],"bean_value":1,"bean_score