[{"rt":35863,"stimulus":"<div style='color:white'>Welcome to our decision-making experiment. In this experiment, you will make decisions between two options. \n Press the SPACE key to continue.</div>","response":" ","trial_type":"html-keyboard-response","trial_index":0,"time_elapsed":35870,"internal_node_id":"0.0-0.0-0.0","bean_trial_duration":null,"bean_duration":null,"bean_stimulus":"<div style='color:white'>Welcome to our decision-making experiment. In this experiment, you will make decisions between two options.\nPress the SPACE key to continue.</div>","bean_choices":[" "],"bean_correct_key":"","bean_type":"jsPsychHtmlKeyboardResponse","bean_text":"Welcome to our decision-making experiment. In this experiment, you will make decisions between two options.     \n Press the SPACE key to continue.","bean_color":"white","bean_correct":false},{"rt":2297,"stimulus":"<div style='color:white'>\n    <div class=\"slotmachine\" style=\"position: absolute; top:1vh; left:0 vw; width: 30vw; height: 35vh; border-color:orange\n        \">\n        </div>\n        <div class=\"slotmachine\" style=\"position: absolute; top:1vh; right:0 vw; left:40vw; width: 30vw; height: 35vh; border-color:blue\n        \">\n        </div>\n    In each trial, you will see two slot machines (bandits) on the screen. <b> Click on a bandit </b> to make your choice.    Press SPACE to continue.</div>","response":" ","trial_type":"html-keyboard-response","trial_index":1,"time_elapsed":38168,"internal_node_id":"0.0-0.0-1.0","bean_trial_duration":null,"bean_duration":null,"bean_stimulus":"<div style='color:white'>\"\n    <div class=\"slotmachine\" style=\"position: absolute; top:1vh; left:0 vw; width: 30vw; height: 35vh; border-color:orange\n        \">\n        </div>\n        <div class=\"slotmachine\" style=\"position: absolute; top:1vh; right:0 vw; left:40vw; width: 30vw; height: 35vh; border-color:blue\n        \">\n        </div>\n    \"In each trial, you will see two slot machines (bandits) on the screen. <b> Click on a bandit </b> to make your choice.    Press SPACE to continue.</div>","bean_choices":[" "],"bean_correct_key":"","bean_type":"jsPsychHtmlKeyboardResponse","bean_text":"\"\n    <div class=\"slotmachine\" style=\"position: absolute; top:1vh; left:0 vw; width: 30vw; height: 35vh; border-color:orange\n        \">\n        </div>\n        <div class=\"slotmachine\" style=\"position: absolute; top:1vh; right:0 vw; left:40vw; width: 30vw; height: 35vh; border-color:blue\n        \">\n        </div>\n    \"In each trial, you will see two slot machines (bandits) on the screen. <b> Click on a bandit </b> to make your choice    Press SPACE to continue.","bean_color":"white","bean_correct":false},{"rt":647,"stimulus":"<div style='color:white'>After selecting a bandit, you will receive feedback showing whether you won reward (1 point) or not (0 point). One bandit tends to give rewards more often than the other. However, this may change during the experiment.</div>","response":" ","trial_type":"html-keyboard-response","trial_index":2,"time_elapsed":38816,"internal_node_id":"0.0-0.0-2.0","bean_trial_duration":null,"bean_duration":null,"bean_stimulus":"<div style='color:white'>After selecting a bandit, you will receive feedback showing whether you won reward (1 point) or not (0 point). One bandit tends to give rewards more often than the other. However, this may change during the experiment.</div>","bean_choices":[" "],"bean_correct_key":"","bean_type":"jsPsychHtmlKeyboardResponse","bean_text":"After selecting a bandit, you will receive feedback showing whether you won reward (1 point) or not (0 point). One bandit tends to give rewards more often than the other. However, this may change during the experiment.","bean_color":"white","bean_correct":false},{"rt":532,"stimulus":"<div style='color:white'>Your goal is to earn as many points as possible. Pay attention to feedback, as the probabilities of winning for each bandit may change over time.     You are now ready to begin. Good luck! Press Q to start the task.</div>","response":" ","trial_type":"html-keyboard-response","trial_index":3,"time_elapsed":39348,"internal_node_id":"0.0-0.0-3.0","bean_trial_duration":null,"bean_duration":null,"bean_stimulus":"<div style='color:white'>Your goal is to earn as many points as possible. Pay attention to feedback, as the probabilities of winning for each bandit may change over time.     You are now ready to begin. Good luck! Press Q to start the task.</div>","bean_choices":["q"," "],"bean_correct_key":"","bean_type":"jsPsychHtmlKeyboardResponse","bean_text":"Your goal is to earn as many points as possible. Pay attention to feedback, as the probabilities of winning for each bandit may change over time.     You are now ready to begin. Good luck! Press Q to start the task.","bean_color":"white","bean_correct":false},{"rt":2773,"stimulus":["<div class=\"slotmachine\" style=\"position: absolute; top:10vh; left:10vw; width: 35vw; height: 35vh; border-color: orange;\"></div>","<div class=\"slotmachine\" style=\"position: absolute; top:10vh; left:55vw; width: 35vw; height: 35vh; border-color: blue;\"></div>"],"response":1,"value":1,"trial_type":"html-choice","trial_index":4,"time_elapsed":44125,"internal_node_id":"0.0-1.0-0.0","bean_trial_duration":null,"bean_duration":null,"bean_html_array":["<div class=\"slotmachine\" style=\"position: absolute; top:10vh; left:10vw; width: 35vw; height: 35vh; border-color: orange ></div>","<div class=\"slotmachine\" style=\"position: absolute; top:10vh; left:55vw; width: 35vw; height: 35vh; border-color: blue ></div>"],"bean_values":[0,1],"bean_time_after_response":2000,"bean_type":"jsPsychHtmlChoice","bean_bandits":[{"color":"orange","value":0},{"color":"blue","value":1}],"bean_value":1,"bean_score":1},{"rt":null,"stimulus":"<div style='color:white'>Score: 1</div>","response":null,"trial_type":"html-keyboard-response","trial_index":5,"time_elapsed":45140,"internal_node_id":"0.0-1.0-1.0","bean_trial_duration":1000,"bean_duration":1000,"bean_stimulus":"<div style='color:white'>Score: 1</div>","bean_choices":[],"bean_correct_key":"","bean_type":"jsPsychHtmlKeyboardResponse","bean_text":"Score: 1","bean_color":"white","bean_correct":false},{"rt":1027,"stimulus":["<div class=\"slotmachine\" style=\"position: absolute; top:10vh; left:10vw; width: 35vw; height: 35vh; border-color: orange;\"></div>","<div class=\"slotmachine\" style=\"position: absolute; top:10vh; left:55vw; width: 35vw; height: 35vh; border-color: blue;\"></div>"],"response":1,"value":1,"trial_type":"html-choice","trial_index":6,"time_elapsed":48169,"internal_node_id":"0.0-1.0-0.1","bean_trial_duration":null,"bean_duration":null,"bean_html_array":["<div class=\"slotmachine\" style=\"position: absolute; top:10vh; left:10vw; width: 35vw; height: 35vh; border-color: orange ></div>","<div class=\"slotmachine\" style=\"position: absolute; top:10vh; left:55vw; width: 35vw; height: 35vh; border-color: blue ></div>"],"bean_values":[1,1],"bean_time_after_response":2000,"bean_type":"jsPsychHtmlChoice","bean_bandits":[{"color":"orange","value":1},{"color":"blue","value":1}],"bean_value":1,"bean_score":2},{"rt":null,"stimulus":"<div style='color:white'>Score: 2</div>","response":null,"trial_type":"html-keyboard-response","trial_index":7,"time_elapsed":49180,"internal_node_id":"0.0-1.0-1.1","bean_trial_duration":1000,"bean_duration":1000,"bean_stimulus":"<div style='color:white'>Score: 2</div>","bean_choices":[],"bean_correct_key":"","bean_type":"jsPsychHtmlKeyboardResponse","bean_text":"Score: 2","bean_color":"white","bean_correct":false},{"rt":874,"stimulus":["<div class=\"slotmachine\" style=\"position: absolute; top:10vh; left:10vw; width: 35vw; height: 35vh; border-color: orange;\"></div>","<div class=\"slotmachine\" style=\"position: absolute; top:10vh; left:55vw; width: 35vw; height: 35vh; border-color: blue;\"></div>"],"response":1,"value":1,"trial_type":"html-choice","trial_index":8,"time_elapsed":52055,"internal_node_id":"0.0-1.0-0.2","bean_trial_duration":null,"bean_duration":null,"bean_html_array":["<div class=\"slotmachine\" style=\"position: absolute; top:10vh; left:10vw; width: 35vw; height: 35vh; border-color: orange ></div>","<div class=\"slotmachine\" style=\"position: absolute; top:10vh; left:55vw; width: 35vw; height: 35vh; border-color: blue ></div>"],"bean_values":[0,1],"bean_time_after_response":2000,"bean_type":"jsPsychHtmlChoice","bean_bandits":[{"color":"orange","value":0},{"color":"blue","value":1}],"bean_value":1,"bean_score":3},{"rt":null,"stimulus":"<div style='color:white'>Score: 3</div>","response":null,"trial_type":"html-keyboard-response","trial_index":9,"time_elapsed":53067,"internal_node_id":"0.0-1.0-1.2","bean_trial_duration":1000,"bean_duration":1000,"bean_stimulus":"<div style='color:white'>Score: 3</div>","bean_choices":[],"bean_correct_key":"","bean_type":"jsPsychHtmlKeyboardResponse","bean_text":"Score: 3","bean_color":"white","bean_correct":false},{"rt":932,"stimulus":["<div class=\"slotmachine\" style=\"position: absolute; top:10vh; left:10vw; width: 35vw; height: 35vh; border-color: orange;\"></div>","<div class=\"slotmachine\" style=\"position: absolute; top:10vh; left:55vw; width: 35vw; height: 35vh; border-color: blue;\"></div>"],"response":1,"value":0,"trial_type":"html-choice","trial_index":10,"time_elapsed":56013,"internal_node_id":"0.0-1.0-0.3","bean_trial_duration":null,"bean_duration":null,"bean_html_array":["<div class=\"slotmachine\" style=\"position: absolute; top:10vh; left:10vw; width: 35vw; height: 35vh; border-color: orange ></div>","<div class=\"slotmachine\" style=\"position: absolute; top:10vh; left:55vw; width: 35vw; height: 35vh; border-color: blue ></div>"],"bean_values":[0,0],"bean_time_after_response":2000,"bean_type":"jsPsychHtmlChoice","bean_bandits":[{"color":"orange","value":0},{"color":"blue","value":0}],"bean_value":0,"bean_score":3},{"rt":null,"stimulus":"<div style='color:white'>Score: 3</div>","response":null,"trial_type":"html-keyboard-response","trial_index":11,"time_elapsed":57020,"internal_node_id":"0.0-1.0-1.3","bean_trial_duration":1000,"bean_duration":1000,"bean_stimulus":"<div style='color:white'>Score: 3</div>","bean_choices":[],"bean_correct_key":"","bean_type":"jsPsychHtmlKeyboardResponse","bean_text":"Score: 3","bean_color":"white","bean_correct":false},{"rt":779,"stimulus":["<div class=\"slotmachine\" style=\"position: absolute; top:10vh; left:10vw; width: 35vw; height: 35vh; border-color: orange;\"></div>","<div class=\"slotmachine\" style=\"position: absolute; top:10vh; left:55vw; width: 35vw; height: 35vh; border-color: blue;\"></div>"],"response":1,"value":0,"trial_type":"html-choice","trial_index":12,"time_elapsed":59810,"internal_node_id":"0.0-1.0-0.4","bean_trial_duration":null,"bean_duration":null,"bean_html_array":["<div class=\"slotmachine\" style=\"position: absolute; top:10vh; left:10vw; width: 35vw; height: 35vh; border-color: orange ></div>","<div class=\"slotmachine\" style=\"position: absolute; top:10vh; left:55vw; width: 35vw; height: 35vh; border-color: blue ></div>"],"bean_values":[0,0],"bean_time_after_response":2000,"bean_type":"jsPsychHtmlChoice","bean_bandits":[{"color":"orange","value":0},{"color":"blue","value":0}],"bean_value":0,"bean_score":3},{"rt":null,"stimulus":"<div style='color:white'>Score: 3</div>","response":null,"trial_type":"html-keyboard-response","trial_index":13,"time_elapsed":60823,"internal_node_id":"0.0-1.0-1.4","bean_trial_duration":1000,"bean_duration":1000,"bean_stimulus":"<div style='color:white'>Score: 3</div>","bean_choices":[],"bean_correct_key":"","bean_type":"jsPsychHtmlKeyboardResponse","bean_text":"Score: 3","bean_color":"white","bean_correct":false},{"rt":1358,"stimulus":["<div class=\"slotmachine\" style=\"position: absolute; top:10vh; left:10vw; width: 35vw; height: 35vh; border-color: orange;\"></div>","<div class=\"slotmachine\" style=\"position: absolute; top:10vh; left:55vw; width: 35vw; height: 35vh; border-color: blue;\"></div>"],"response":0,"value":1,"trial_type":"html-choice","trial_index":14,"time_elapsed":64182,"internal_node_id":"0.0-1.0-0.5","bean_trial_duration":null,"bean_duration":null,"bean_html_array":["<div class=\"slotmachine\" style=\"position: absolute; top:10vh; left:10vw; width: 35vw; height: 35vh; border-color: orange ></div>","<div class=\"slotmachine\" style=\"position: absolute; top:10vh; left:55vw; width: 35vw; height: 35vh; border-color: blue ></div>"],"bean_values":[1,0],"bean_time_after_response":2000,"bean_type":"jsPsychHtmlChoice","bean_bandits":[{"color":"orange","value":1},{"color":"blue","value":0}],"bean_value":1,"bean_score":4},{"rt":null,"stimulus":"<div style='color:white'>Score: 4</div>","response":null,"trial_type":"html-keyboard-response","trial_index":15,"time_elapsed":65194,"internal_node_id":"0.0-1.0-1.5","bean_trial_duration":1000,"bean_duration":1000,"bean_stimulus":"<div style='color:white'>Score: 4</div>","bean_choices":[],"bean_correct_key":"","bean_type":"jsPsychHtmlKeyboardResponse","bean_text":"Score: 4","bean_color":"white","bean_correct":false},{"rt":799,"stimulus":["<div class=\"slotmachine\" style=\"position: absolute; top:10vh; left:10vw; width: 35vw; height: 35vh; border-color: orange;\"></div>","<div class=\"slotmachine\" style=\"position: absolute; top:10vh; left:55vw; width: 35vw; height: 35vh; border-color: blue;\"></div>"],"response":0,"value":1,"trial_type":"html-choice","trial_index":16,"time_elapsed":68000,"internal_node_id":"0.0-1.0-0.6","bean_trial_duration":null,"bean_duration":null,"bean_html_array":["<div class=\"slotmachine\" style=\"position: absolute; top:10vh; left:10vw; width: 35vw; height: 35vh; border-color: orange ></div>","<div class=\"slotmachine\" style=\"position: absolute; top:10vh; left:55vw; width: 35vw; height: 35vh; border-color: blue ></div>"],"bean_values":[1,0],"bean_time_after_response":2000,"bean_type":"jsPsychHtmlChoice","bean_bandits":[{"color":"orange","value":1},{"color":"blue","value":0}],"bean_value":1,"bean_score":5},{"rt":null,"stimulus":"<div style='color:white'>Score: 5</div>","response":null,"trial_type":"html-keyboard-response","trial_index":17,"time_elapsed":69008,"internal_node_id":"0.0-1.0-1.6","bean_trial_duration":1000,"bean_duration":1000,"bean_stimulus":"<div style='color:white'>Score: 5</div>","bean_choices":[],"bean_correct_key":"","bean_type":"jsPsychHtmlKeyboardResponse","bean_text":"Score: 5","bean_color":"white","bean_correct":false},{"rt":756,"stimulus":["<div class=\"slotmachine\" style=\"position: absolute; top:10vh; left:10vw; width: 35vw; height: 35vh; border-color: orange;\"></div>","<div class=\"slotmachine\" style=\"position: absolute; top:10vh; left:55vw; width: 35vw; height: 35vh; border-color: blue;\"></div>"],"response":0,"value":1,"trial_type":"html-choice","trial_index":18,"time_elapsed":71772,"internal_node_id":"0.0-1.0-0.7","bean_trial_duration":null,"bean_duration":null,"bean_html_array":["<div class=\"slotmachine\" style=\"position: absolute; top:10vh; left:10vw; width: 35vw; height: 35vh; border-color: orange ></div>","<div class=\"slotmachine\" style=\"position: absolute; top:10vh; left:55vw; width: 35vw; height: 35vh; border-color: blue ></div>"],"bean_values":[1,0],"bean_time_after_response":2000,"bean_type":"jsPsychHtmlChoice","bean_bandits":[{"color":"orange","value":1},{"color":"blue","value":0}],"bean_value":1,"bean_score":6},{"rt":null,"stimulus":"<div style='color:white'>Score: 6</div>","response":null,"trial_type":"html-keyboard-response","trial_index":19,"time_elapsed":72781,"internal_node_id":"0.0-1.0-1.7","bean_trial_duration":1000,"bean_duration":1000,"bean_stimulus":"<div style='color:white'>Score: 6</div>","bean_choices":[],"bean_correct_key":"","bean_type":"jsPsychHtmlKeyboardResponse","bean_text":"Score: 6","bean_color":"white","bean_correct":false},{"rt":751,"stimulus":["<div class=\"slotmachine\" style=\"position: absolute; top:10vh; left:10vw; width: 35vw; height: 35vh; border-color: orange;\"></div>","<div class=\"slotmachine\" style=\"position: absolute; top:10vh; left:55vw; width: 35vw; height: 35vh; border-color: blue;\"></div>"],"response":0,"value":0,"trial_type":"html-choice","trial_index":20,"time_elapsed":75547,"internal_node_id":"0.0-1.0-0.8","bean_trial_duration":null,"bean_duration":null,"bean_html_array":["<div class=\"slotmachine\" style=\"position: absolute; top:10vh; left:10vw; width: 35vw; height: 35vh; border-color: orange ></div>","<div class=\"slotmachine\" style=\"position: absolute; top:10vh; left:55vw; width: 35vw; height: 35vh; border-color: blue ></div>"],"bean_values":[0,0],"bean_time_after_response":2000,"bean_type":"jsPsychHtmlChoice","bean_bandits":[{"color":"orange","value":0},{"color":"blue","value":0}],"bean_value":0,"bean_score":6},{"rt":null,"stimulus":"<div style='color:white'>Score: 6</div>","response":null,"trial_type":"html-keyboard-response","trial_index":21,"time_elapsed":76562,"internal_node_id":"0.0-1.0-1.8","bean_trial_duration":1000,"bean_duration":1000,"bean_stimulus":"<div style='color:white'>Score: 6</div>","bean_choices":[],"bean_correct_key":"","bean_type":"jsPsychHtmlKeyboardResponse","bean_text":"Score: 6","bean_color":"white","bean_correct":false},{"rt":1832,"stimulus":["<div class=\"slotmachine\" style=\"position: absolute; top:10vh; left:10vw; width: 35vw; height: 35vh; border-color: orange;\"></div>","<div class=\"slotmachine\" style=\"position: absolute; top:10vh; left:55vw; width: 35vw; height: 35vh; border-color: blue;\"></div>"],"response":1,"value":0,"trial_type":"html-choice","trial_index":22,"time_elapsed":80395,"internal_node_id":"0.0-1.0-0.9","bean_trial_duration":null,"bean_duration":null,"bean_html_array":["<div class=\"slotmachine\" style=\"position: absolute; top:10vh; left:10vw; width: 35vw; height: 35vh; border-color: orange ></div>","<div class=\"slotmachine\" style=\"position: absolute; top:10vh; left:55vw; width: 35vw; height: 35vh; border-color: blue ></div>"],"bean_values":[1,0],"bean_time_after_response":2000,"bean_type":"jsPsychHtmlChoice","bean_bandits":[{"color":"orange","value":1},{"color":"blue","value":0}],"bean_value":0,"bean_score":6},{"rt":null,"stimulus":"<div style='color:white'>Score: 6</div>","response":null,"trial_type":"html-keyboard-response","trial_index":23,"time_elapsed":81400,"internal_node_id":"0.0-1.0-1.9","bean_trial_duration":1000,"bean_duration":1000,"bean_stimulus":"<div style='color:white'>Score: 6</div>","bean_choices":[],"bean_correct_key":"","bean_type":"jsPsychHtmlKeyboardResponse","bean_text":"Score: 6","bean_color":"white","bean_correct":false},{"rt":939,"stimulus":["<div class=\"slotmachine\" style=\"position: absolute; top:10vh; left:10vw; width: 35vw; height: 35vh; border-color: orange;\"></div>","<div class=\"slotmachine\" style=\"position: absolute; top:10vh; left:55vw; width: 35vw; height: 35vh; border-color: blue;\"></div>"],"response":0,"value":0,"trial_type":"html-choice","trial_index":24,"time_elapsed":84340,"internal_node_id":"0.0-1.0-0.10","bean_trial_duration":null,"bean_duration":null,"bean_html_array":["<div class=\"slotmachine\" style=\"position: absolute; top:10vh; left:10vw; width: 35vw; height: 35vh; border-color: orange ></div>","<div class=\"slotmachine\" style=\"position: absolute; top:10vh; left:55vw; width: 35vw; height: 35vh; border-color: blue ></div>"],"bean_values":[0,0],"bean_time_after_response":2000,"bean_type":"jsPsychHtmlChoice","bean_bandits":[{"color":"orange","value":0},{"color":"blue","value":0}],"bean_value":0,"bean_score":6},{"rt":null,"stimulus":"<div style='color:white'>Score: 6</div>","response":null,"trial_type":"html-keyboard-response","trial_index":25,"time_elapsed":85353,"internal_node_id":"0.0-1.0-1.10","bean_trial_duration":1000,"bean_duration":1000,"bean_stimulus":"<div style='color:white'>Score: 6</div>","bean_choices":[],"bean_correct_key":"","bean_type":"jsPsychHtmlKeyboardResponse","bean_text":"Score: 6","bean_color":"white","bean_correct":false},{"rt":856,"stimulus":["<div class=\"slotmachine\" style=\"position: absolute; top:10vh; left:10vw; width: 35vw; height: 35vh; border-color: orange;\"></div>","<div class=\"slotmachine\" style=\"position: absolute; top:10vh; left:55vw; width: 35vw; height: 35vh; border-color: blue;\"></div>"],"response":0,"value":1,"trial_type":"html-choice","trial_index":26,"time_elapsed":88222,"internal_node_id":"0.0-1.0-0.11","bean_trial_duration":null,"bean_duration":null,"bean_html_array":["<div class=\"slotmachine\" style=\"position: absolute; top:10vh; left:10vw; width: 35vw; height: 35vh; border-color: orange ></div>","<div class=\"slotmachine\" style=\"position: absolute; top:10vh; left:55vw; width: 35vw; height: 35vh; border-color: blue ></div>"],"bean_values":[1,0],"bean_time_after_response":2000,"bean_type":"jsPsychHtmlChoice","bean_bandits":[{"color":"orange","value":1},{"color":"blue","value":0}],"bean_value":1,"bean_score":7},{"rt":null,"stimulus":"<div style='color:white'>Score: 7</div>","response":null,"trial_type":"html-keyboard-response","trial_index":27,"time_elapsed":89225,"internal_node_id":"0.0-1.0-1.11","bean_trial_duration":1000,"bean_duration":1000,"bean_stimulus":"<div style='color:white'>Score: 7</div>","bean_choices":[],"bean_correct_key":"","bean_type":"jsPsychHtmlKeyboardResponse","bean_text":"Score: 7","bean_color":"white","bean_correct":false},{"rt":839,"stimulus":["<div class=\"slotmachine\" style=\"position: absolute; top:10vh; left:10vw; width: 35vw; height: 35vh; border-color: orange;\"></div>","<div class=\"slotmachine\" style=\"position: absolute; top:10vh; left:55vw; width: 35vw; height: 35vh; border-color: blue;\"></div>"],"response":0,"value":1,"trial_type":"html-choice","trial_index":28,"time_elapsed":92072,"internal_node_id":"0.0-1.0-0.12","bean_trial_duration":null,"bean_duration":null,"bean_html_array":["<div class=\"slotmachine\" style=\"position: absolute; top:10vh; left:10vw; width: 35vw; height: 35vh; border-color: orange ></div>","<div class=\"slotmachine\" style=\"position: absolute; top:10vh; left:55vw; width: 35vw; height: 35vh; border-color: blue ></div>"],"bean_values":[1,1],"bean_time_after_response":2000,"bean_type":"jsPsychHtmlChoice","bean_bandits":[{"color":"orange","value":1},{"color":"blue","value":1}],"bean_value":1,"bean_score":8},{"rt":null,"stimulus":"<div style='color:white'>Score: 8</div>","response":null,"trial_type":"html-keyboard-response","trial_index":29,"time_elapsed":93086,"internal_node_id":"0.0-1.0-1.12","bean_trial_duration":1000,"bean_duration":1000,"bean_stimulus":"<div style='color:white'>Score: 8</div>","bean_choices":[],"bean_correct_key":"","bean_type":"jsPsychHtmlKeyboardResponse","bean_text":"Score: 8","bean_color":"white","bean_correct":false},{"rt":1262,"stimulus":["<div class=\"slotmachine\" style=\"position: absolute; top:10vh; left:10vw; width: 35vw; height: 35vh; border-color: orange;\"></div>","<div class=\"slotmachine\" style=\"position: absolute; top:10vh; left:55vw; width: 35vw; height: 35vh; border-color: blue;\"></div>"],"response":0,"value":1,"trial_type":"html-choice","trial_index":30,"time_elapsed":96360,"internal_node_id":"0.0-1.0-0.13","bean_trial_duration":null,"bean_duration":null,"bean_html_array":["<div class=\"slotmachine\" style=\"position: absolute; top:10vh; left:10vw; width: 35vw; height: 35vh; border-color: orange ></div>","<div class=\"slotmachine\" style=\"position: absolute; top:10vh; left:55vw; width: 35vw; height: 35vh; border-color: blue ></div>"],"bean_values":[1,0],"bean_time_after_response":2000,"bean_type":"jsPsychHtmlChoice","bean_bandits":[{"color":"orange","value":1},{"color":"blue","value":0}],"bean_value":1,"bean_score":9},{"rt":null,"stimulus":"<div style='color:white'>Score: 9</div>","response":null,"trial_type":"html-keyboard-response","trial_index":31,"time_elapsed":97374,"internal_node_id":"0.0-1.0-1.13","bean_trial_duration":1000,"bean_duration":1000,"bean_stimulus":"<div style='color:white'>Score: 9</div>","bean_choices":[],"bean_correct_key":"","bean_type":"jsPsychHtmlKeyboardResponse","bean_text":"Score: 9","bean_color":"white","bean_correct":false},{"rt":715,"stimulus":["<div class=\"slotmachine\" style=\"position: absolute; top:10vh; left:10vw; width: 35vw; height: 35vh; border-color: orange;\"></div>","<div class=\"slotmachine\" style=\"position: absolute; top:10vh; left:55vw; width: 35vw; height: 35vh; border-color: blue;\"></div>"],"response":0,"value":1,"trial_type":"html-choice","trial_index":32,"time_elapsed":100091,"internal_node_id":"0.0-1.0-0.14","bean_trial_duration":null,"bean_duration":null,"bean_html_array":["<div class=\"slotmachine\" style=\"position: absolute; top:10vh; left:10vw; width: 35vw; height: 35vh; border-color: orange ></div>","<div class=\"slotmachine\" style=\"position: absolute; top:10vh; left:55vw; width: 35vw; height: 35vh; border-color: blue ></div>"],"bean_values":[1,0],"bean_time_after_response":2000,"bean_type":"jsPsychHtmlChoice","bean_bandits":[{"color":"orange","value":1},{"color":"blue","value":0}],"bean_value":1,"bean_score":10},{"rt":null,"stimulus":"<div style='color:white'>Score: 10</div>","response":null,"trial_type":"html-keyboard-response","trial_index":33,"time_elapsed":101096,"internal_node_id":"0.0-1.0-1.14","bean_trial_duration":1000,"bean_duration":1000,"bean_stimulus":"<div style='color:white'>Score: 10</div>","bean_choices":[],"bean_correct_key":"","bean_type":"jsPsychHtmlKeyboardResponse","bean_text":"Score: 10","bean_color":"white","bean_correct":false},{"rt":779,"stimulus":["<div class=\"slotmachine\" style=\"position: absolute; top:10vh; left:10vw; width: 35vw; height: 35vh; border-color: orange;\"></div>","<div class=\"slotmachine\" style=\"position: absolute; top:10vh; left:55vw; width: 35vw; height: 35vh; border-color: blue;\"></div>"],"response":0,"value":1,"trial_type":"html-choice","trial_index":34,"time_elapsed":103879,"internal_node_id":"0.0-1.0-0.15","bean_trial_duration":null,"bean_duration":null,"bean_html_array":["<div class=\"slotmachine\" style=\"position: absolute; top:10vh; left:10vw; width: 35vw; height: 35vh; border-color: orange ></div>","<div class=\"slotmachine\" style=\"position: absolute; top:10vh; left:55vw; width: 35vw; height: 35vh; border-color: blue ></div>"],"bean_values":[1,0],"bean_time_after_response":2000,"bean_type":"jsPsychHtmlChoice","bean_bandits":[{"color":"orange","value":1},{"color":"blue","value":0}],"bean_value":1,"bean_score":11},{"rt":null,"stimulus":"<div style='color:white'>Score: 11</div>","response":null,"trial_type":"html-keyboard-response","trial_index":35,"time_elapsed":104886,"internal_node_id":"0.0-1.0-1.15","bean_trial_duration":1000,"bean_duration":1000,"bean_stimulus":"<div style='color:white'>Score: 11</div>","bean_choices":[],"bean_correct_key":"","bean_type":"jsPsychHtmlKeyboardResponse","bean_text":"Score: 11","bean_color":"white","bean_correct":false},{"rt":844,"stimulus":["<div class=\"slotmachine\" style=\"position: absolute; top:10vh; left:10vw; width: 35vw; height: 35vh; border-color: orange;\"></div>","<div class=\"slotmachine\" style=\"position: absolute; top:10vh; left:55vw; width: 35vw; height: 35vh; border-color: blue;\"></div>"],"response":0,"value":0,"trial_type":"html-choice","trial_index":36,"time_elapsed":107732,"internal_node_id":"0.0-1.0-0.16","bean_trial_duration":null,"bean_duration":null,"bean_html_array":["<div class=\"slotmachine\" style=\"position: absolute; top:10vh; left:10vw; width: 35vw; height: 35vh; border-color: orange ></div>","<div class=\"slotmachine\" style=\"position: absolute; top:10vh; left:55vw; width: 35vw; height: 35vh; border-color: blue ></div>"],"bean_values":[0,0],"bean_time_after_response":2000,"bean_type":"jsPsychHtmlChoice","bean_bandits":[{"color":"orange","value":0},{"color":"blue","value":0}],"bean_value":0,"bean_score":11},{"rt":null,"stimulus":"<div style='color:white'>Score: 11</div>","response":null,"trial_type":"html-keyboard-response","trial_index":37,"time_elapsed":108744,"internal_node_id":"0.0-1.0-1.16","bean_trial_duration":1000,"bean_duration":1000,"bean_stimulus":"<div style='color:white'>Score: 11</div>","bean_choices":[],"bean_correct_key":"","bean_type":"jsPsychHtmlKeyboardResponse","bean_text":"Score: 11","bean_color":"white","bean_correct":false},{"rt":845,"stimulus":["<div class=\"slotmachine\" style=\"position: absolute; top:10vh; left:10vw; width: 35vw; height: 35vh; border-color: orange;\"></div>","<div class=\"slotmachine\" style=\"position: absolute; top:10vh; left:55vw; width: 35vw; height: 35vh; border-color: blue;\"></div>"],"response":0,"value":1,"trial_type":"html-choice","trial_index":38,"time_elapsed":111593,"internal_node_id":"0.0-1.0-0.17","bean_trial_duration":null,"bean_duration":null,"bean_html_array":["<div class=\"slotmachine\" style=\"position: absolute; top:10vh; left:10vw; width: 35vw; height: 35vh; border-color: orange ></div>","<div class=\"slotmachine\" style=\"position: absolute; top:10vh; left:55vw; width: 35vw; height: 35vh; border-color: blue ></div>"],"bean_values":[1,0],"bean_time_after_response":2000,"bean_type":"jsPsychHtmlChoice","bean_bandits":[{"color":"orange","value":1},{"color":"blue","value":0}],"bean_value":1,"bean_score":12},{"rt":null,"stimulus":"<div style='color:white'>Score: 12</div>","response":null,"trial_type":"html-keyboard-response","trial_index":39,"time_elapsed":112603,"internal_node_id":"0.0-1.0-1.17","bean_trial_duration":1000,"bean_duration":1000,"bean_stimulus":"<div style='color:white'>Score: 12</div>","bean_choices":[],"bean_correct_key":"","bean_type":"jsPsychHtmlKeyboardResponse","bean_text":"Score: 12","bean_color":"white","bean_correct":false},{"rt":1065,"stimulus":["<div class=\"slotmachine\" style=\"position: absolute; top:10vh; left:10vw; width: 35vw; height: 35vh; border-color: orange;\"></div>","<div class=\"slotmachine\" style=\"position: absolute; top:10vh; left:55vw; width: 35vw; height: 35vh; border-color: blue;\"></div>"],"response":0,"value":1,"trial_type":"html-choice","trial_index":40,"time_elapsed":115685,"internal_node_id":"0.0-1.0-0.18","bean_trial_duration":null,"bean_duration":null,"bean_html_array":["<div class=\"slotmachine\" style=\"position: absolute; top:10vh; left:10vw; width: 35vw; height: 35vh; border-color: orange ></div>","<div class=\"slotmachine\" style=\"position: absolute; top:10vh; left:55vw; width: 35vw; height: 35vh; border-color: blue ></div>"],"bean_values":[1,1],"bean_time_after_response":2000,"bean_type":"jsPsychHtmlChoice","bean_bandits":[{"color":"orange","value":1},{"color":"blue","value":1}],"bean_value":1,"bean_score":13},{"rt":null,"stimulus":"<div style='color:white'>Score: 13</div>","response":null,"trial_type":"html-keyboard-response","trial_index":41,"time_elapsed":116697,"internal_node_id":"0.0-1.0-1.18","bean_trial_duration":1000,"bean_duration":1000,"bean_stimulus":"<div style='color:white'>Score: 13</div>","bean_choices":[],"bean_correct_key":"","bean_type":"jsPsychHtmlKeyboardResponse","bean_text":"Score: 13","bean_color":"white","bean_correct":false},{"rt":714,"stimulus":["<div class=\"slotmachine\" style=\"position: absolute; top:10vh; left:10vw; width: 35vw; height: 35vh; border-color: orange;\"></div>","<div class=\"slotmachine\" style=\"position: absolute; top:10vh; left:55vw; width: 35vw; height: 35vh; border-color: blue;\"></div>"],"response":0,"value":1,"trial_type":"html-choice","trial_index":42,"time_elapsed":119412,"internal_node_id":"0.0-1.0-0.19","bean_trial_duration":null,"bean_duration":null,"bean_html_array":["<div class=\"slotmachine\" style=\"position: absolute; top:10vh; left:10vw; width: 35vw; height: 35vh; border-color: orange ></div>","<div class=\"slotmachine\" style=\"position: absolute; top:10vh; left:55vw; width: 35vw; height: 35vh; border-color: blue ></div>"],"bean_values":[1,0],"bean_time_after_response":2000,"bean_type":"jsPsychHtmlChoice","bean_bandits":[{"color":"orange","value":1},{"color":"blue","value":0}],"bean_value":1,"bean_score":14},{"rt":null,"stimulus":"<div style='color:white'>Score: 14</div>","response":null,"trial_type":"html-keyboard-response","trial_index":43,"time_elapsed":120426,"internal_node_id":"0.0-1.0-1.19","bean_trial_duration":1000,"bean_duration":1000,"bean_stimulus":"<div style='color:white'>Score: 14</div>","bean_choices":[],"bean_correct_key":"","bean_type":"jsPsychHtmlKeyboardResponse","bean_text":"Score: 14","bean_color":"white","bean_correct":false},{"rt":2060,"stimulus":["<div class=\"slotmachine\" style=\"position: absolute; top:10vh; left:10vw; width: 35vw; height: 35vh; border-color: orange;\"></div>","<div class=\"slotmachine\" style=\"position: absolute; top:10vh; left:55vw; width: 35vw; height: 35vh; border-color: blue;\"></div>"],"response":0,"value":1,"trial_type":"html-choice","trial_index":44,"time_elapsed":124487,"internal_node_id":"0.0-1.0-0.20","bean_trial_duration":null,"bean_duration":null,"bean_html_array":["<div class=\"slotmachine\" style=\"position: absolute; top:10vh; left:10vw; width: 35vw; height: 35vh; border-color: orange ></div>","<div class=\"slotmachine\" style=\"position: absolute; top:10vh; left:55vw; width: 35vw; height: 35vh; border-color: blue ></div>"],"bean_values":[1,0],"bean_time_after_response":2000,"bean_type":"jsPsychHtmlChoice","bean_bandits":[{"color":"orange","value":1},{"color":"blue","value":0}],"bean_value":1,"bean_score":15},{"rt":null,"stimulus":"<div style='color:white'>Score: 15</div>","response":null,"trial_type":"html-keyboard-response","trial_index":45,"time_elapsed":125495,"internal_node_id":"0.0-1.0-1.20","bean_trial_duration":1000,"bean_duration":1000,"bean_stimulus":"<div style='color:white'>Score: 15</div>","bean_choices":[],"bean_correct_key":"","bean_type":"jsPsychHtmlKeyboardResponse","bean_text":"Score: 15","bean_color":"white","bean_correct":false},{"rt":1106,"stimulus":["<div class=\"slotmachine\" style=\"position: absolute; top:10vh; left:10vw; width: 35vw; height: 35vh; border-color: orange;\"></div>","<div class=\"slotmachine\" style=\"position: absolute; top:10vh; left:55vw; width: 35vw; height: 35vh; border-color: blue;\"></div>"],"response":0,"value":1,"trial_type":"html-choice","trial_index":46,"time_elapsed":128602,"internal_node_id":"0.0-1.0-0.21","bean_trial_duration":null,"bean_duration":null,"bean_html_array":["<div class=\"slotmachine\" style=\"position: absolute; top:10vh; left:10vw; width: 35vw; height: 35vh; border-color: orange ></div>","<div class=\"slotmachine\" style=\"position: absolute; top:10vh; left:55vw; width: 35vw; height: 35vh; border-color: blue ></div>"],"bean_values":[1,0],"bean_time_after_response":2000,"bean_type":"jsPsychHtmlChoice","bean_bandits":[{"color":"orange","value":1},{"color":"blue","value":0}],"bean_value":1,"bean_score":16},{"rt":null,"stimulus":"<div style='color:white'>Score: 16</div>","response":null,"trial_type":"html-keyboard-response","trial_index":47,"time_elapsed":129612,"internal_node_id":"0.0-1.0-1.21","bean_trial_duration":1000,"bean_duration":1000,"bean_stimulus":"<div style='color:white'>Score: 16</div>","bean_choices":[],"bean_correct_key":"","bean_type":"jsPsychHtmlKeyboardResponse","bean_text":"Score: 16","bean_color":"white","bean_correct":false},{"rt":996,"stimulus":["<div class=\"slotmachine\" style=\"position: absolute; top:10vh; left:10vw; width: 35vw; height: 35vh; border-color: orange;\"></div>","<div class=\"slotmachine\" style=\"position: absolute; top:10vh; left:55vw; width: 35vw; height: 35vh; border-color: blue;\"></div>"],"response":0,"value":0,"trial_type":"html-choice","trial_index":48,"time_elapsed":132611,"internal_node_id":"0.0-1.0-0.22","bean_trial_duration":null,"bean_duration":null,"bean_html_array":["<div class=\"slotmachine\" style=\"position: absolute; top:10vh; left:10vw; width: 35vw; height: 35vh; border-color: orange ></div>","<div class=\"slotmachine\" style=\"position: absolute; top:10vh; left:55vw; width: 35vw; height: 35vh; border-color: blue ></div>"],"bean_values":[0,1],"bean_time_after_response":2000,"bean_type":"jsPsychHtmlChoice","bean_bandits":[{"color":"orange","value":0},{"color":"blue","value":1}],"bean_value":0,"bean_score":16},{"rt":null,"stimulus":"<div style='color:white'>Score: 16</div>","response":null,"trial_type":"html-keyboard-response","trial_index":49,"time_elapsed":133614,"internal_node_id":"0.0-1.0-1.22","bean_trial_duration":1000,"bean_duration":1000,"bean_stimulus":"<div style='color:white'>Score: 16</div>","bean_choices":[],"bean_correct_key":"","bean_type":"jsPsychHtmlKeyboardResponse","bean_text":"Score: 16","bean_color":"white","bean_correct":false},{"rt":844,"stimulus":["<div class=\"slotmachine\" style=\"position: absolute; top:10vh; left:10vw; width: 35vw; height: 35vh; border-color: orange;\"></div>","<div class=\"slotmachine\" style=\"position: absolute; top:10vh; left:55vw; width: 35vw; height: 35vh; border-color: blue;\"></div>"],"response":0,"value":1,"trial_type":"html-choice","trial_index":50,"time_elapsed":136460,"internal_node_id":"0.0-1.0-0.23","bean_trial_duration":null,"bean_duration":null,"bean_html_array":["<div class=\"slotmachine\" style=\"position: absolute; top:10vh; left:10vw; width: 35vw; height: 35vh; border-color: orange ></div>","<div class=\"slotmachine\" style=\"position: absolute; top:10vh; left:55vw; width: 35vw; height: 35vh; border-color: blue ></div>"],"bean_values":[1,1],"bean_time_after_response":2000,"bean_type":"jsPsychHtmlChoice","bean_bandits":[{"color":"orange","value":1},{"color":"blue","value":1}],"bean_value":1,"bean_score":17},{"rt":null,"stimulus":"<div style='color:white'>Score: 17</div>","response":null,"trial_type":"html-keyboard-response","trial_index":51,"time_elapsed":137465,"internal_node_id":"0.0-1.0-1.23","bean_trial_duration":1000,"bean_duration":1000,"bean_stimulus":"<div style='color:white'>Score: 17</div>","bean_choices":[],"bean_correct_key":"","bean_type":"jsPsychHtmlKeyboardResponse","bean_text":"Score: 17","bean_color":"white","bean_correct":false},{"rt":951,"stimulus":["<div class=\"slotmachine\" style=\"position: absolute; top:10vh; left:10vw; width: 35vw; height: 35vh; border-color: orange;\"></div>","<div class=\"slotmachine\" style=\"position: absolute; top:10vh; left:55vw; width: 35vw; height: 35vh; border-color: blue;\"></div>"],"response":0,"value":1,"trial_type":"html-choice","trial_index":52,"time_elapsed":140418,"internal_node_id":"0.0-1.0-0.24","bean_trial_duration":null,"bean_duration":null,"bean_html_array":["<div class=\"slotmachine\" style=\"position: absolute; top:10vh; left:10vw; width: 35vw; height: 35vh; border-color: orange ></div>","<div class=\"slotmachine\" style=\"position: absolute; top:10vh; left:55vw; width: 35vw; height: 35vh; border-color: blue ></div>"],"bean_values":[1,0],"bean_time_after_response":2000,"bean_type":"jsPsychHtmlChoice","bean_bandits":[{"color":"orange","value":1},{"color":"blue","value":0}],"bean_value":1,"bean_score":18},{"rt":null,"stimulus":"<div style='color:white'>Score: 18</div>","response":null,"trial_type":"html-keyboard-response","trial_index":53,"time_elapsed":141425,"internal_node_id":"0.0-1.0-1.24","bean_trial_duration":1000,"bean_duration":1000,"bean_stimulus":"<div style='color:white'>Score: 18</div>","bean_choices":[],"bean_correct_key":"","bean_type":"jsPsychHtmlKeyboardResponse","bean_text":"Score: 18","bean_color":"white","bean_correct":false},{"rt":796,"stimulus":["<div class=\"slotmachine\" style=\"position: absolute; top:10vh; left:10vw; width: 35vw; height: 35vh; border-color: orange;\"></div>","<div class=\"slotmachine\" style=\"position: absolute; top:10vh; left:55vw; width: 35vw; height: 35vh; border-color: blue;\"></div>"],"response":0,"value":1,"trial_type":"html-choice","trial_index":54,"time_elapsed":144237,"internal_node_id":"0.0-1.0-0.25","bean_trial_duration":null,"bean_duration":null,"bean_html_array":["<div class=\"slotmachine\" style=\"position: absolute; top:10vh; left:10vw; width: 35vw; height: 35vh; border-color: orange ></div>","<div class=\"slotmachine\" style=\"position: absolute; top:10vh; left:55vw; width: 35vw; height: 35vh; border-color: blue ></div>"],"bean_values":[1,0],"bean_time_after_response":2000,"bean_type":"jsPsychHtmlChoice","bean_bandits":[{"color":"orange","value":1},{"color":"blue","value":0}],"bean_value":1,"bean_score":19},{"rt":null,"stimulus":"<div style='color:white'>Score: 19</div>","response":null,"trial_type":"html-keyboard-response","trial_index":55,"time_elapsed":145251,"internal_node_id":"0.0-1.0-1.25","bean_trial_duration":1000,"bean_duration":1000,"bean_stimulus":"<div style='color:white'>Score: 19</div>","bean_choices":[],"bean_correct_key":"","bean_type":"jsPsychHtmlKeyboardResponse","bean_text":"Score: 19","bean_color":"white","bean_correct":false},{"rt":874,"stimulus":["<div class=\"slotmachine\" style=\"position: absolute; top:10vh; left:10vw; width: 35vw; height: 35vh; border-color: orange;\"></div>","<div class=\"slotmachine\" style=\"position: absolute; top:10vh; left:55vw; width: 35vw; height: 35vh; border-color: blue;\"></div>"],"response":0,"value":1,"trial_type":"html-choice","trial_index":56,"time_elapsed":148131,"internal_node_id":"0.0-1.0-0.26","bean_trial_duration":null,"bean_duration":null,"bean_html_array":["<div class=\"slotmachine\" style=\"position: absolute; top:10vh; left:10vw; width: 35vw; height: 35vh; border-color: orange ></div>","<div class=\"slotmachine\" style=\"position: absolute; top:10vh; left:55vw; width: 35vw; height: 35vh; border-color: blue ></div>"],"bean_values":[1,1],"bean_time_after_response":2000,"bean_type":"jsPsychHtmlChoice","bean_bandits":[{"color":"orange","value":1},{"color":"blue","value":1}],"bean_value":1,"bean_score":20},{"rt":null,"stimulus":"<div style='color:white'>Score: 20</div>","response":null,"trial_type":"html-keyboard-response","trial_index":57,"time_elapsed":149143,"internal_node_id":"0.0-1.0-1.26","bean_trial_duration":1000,"bean_duration":1000,"bean_stimulus":"<div style='color:white'>Score: 20</div>","bean_choices":[],"bean_correct_key":"","bean_type":"jsPsychHtmlKeyboardResponse","bean_text":"Score: 20","bean_color":"white","bean_correct":false},{"rt":1431,"stimulus":["<div class=\"slotmachine\" style=\"position: absolute; top:10vh; left:10vw; width: 35vw; height: 35vh; border-color: orange;\"></div>","<div class=\"slotmachine\" style=\"position: absolute; top:10vh; left:55vw; width: 35vw; height: 35vh; border-color: blue;\"></div>"],"response":0,"value":0,"trial_type":"html-choice","trial_index":58,"time_elapsed":152576,"internal_node_id":"0.0-1.0-0.27","bean_trial_duration":null,"bean_duration":null,"bean_html_array":["<div class=\"slotmachine\" style=\"position: absolute; top:10vh; left:10vw; width: 35vw; height: 35vh; border-color: orange ></div>","<div class=\"slotmachine\" style=\"position: absolute; top:10vh; left:55vw; width: 35vw; height: 35vh; border-color: blue ></div>"],"bean_values":[0,0],"bean_time_after_response":2000,"bean_type":"jsPsychHtmlChoice","bean_bandits":[{"color":"orange","value":0},{"color":"blue","value":0}],"bean_value":0,"bean_score":20},{"rt":null,"stimulus":"<div style='color:white'>Score: 20</div>","response":null,"trial_type":"html-keyboard-response","trial_index":59,"time_elapsed":153581,"internal_node_id":"0.0-1.0-1.27","bean_trial_duration":1000,"bean_duration":1000,"bean_stimulus":"<div style='color:white'>Score: 20</div>","bean_choices":[],"bean_correct_key":"","bean_type":"jsPsychHtmlKeyboardResponse","bean_text":"Score: 20","bean_color":"white","bean_correct":false},{"rt":1171,"stimulus":["<div class=\"slotmachine\" style=\"position: absolute; top:10vh; left:10vw; width: 35vw; height: 35vh; border-color: orange;\"></div>","<div class=\"slotmachine\" style=\"position: absolute; top:10vh; left:55vw; width: 35vw; height: 35vh; border-color: blue;\"></div>"],"response":0,"value":1,"trial_type":"html-choice","trial_index":60,"time_elapsed":156756,"internal_node_id":"0.0-1.0-0.28","bean_trial_duration":null,"bean_duration":null,"bean_html_array":["<div class=\"slotmachine\" style=\"position: absolute; top:10vh; left:10vw; width: 35vw; height: 35vh; border-color: orange ></div>","<div class=\"slotmachine\" style=\"position: absolute; top:10vh; left:55vw; width: 35vw; height: 35vh; border-color: blue ></div>"],"bean_values":[1,0],"bean_time_after_response":2000,"bean_type":"jsPsychHtmlChoice","bean_bandits":[{"color":"orange","value":1},{"color":"blue","value":0}],"bean_value":1,"bean_score":21},{"rt":null,"stimulus":"<div style='color:white'>Score: 21</div>","response":null,"trial_type":"html-keyboard-response","trial_index":61,"time_elapsed":157766,"internal_node_id":"0.0-1.0-1.28","bean_trial_duration":1000,"bean_duration":1000,"bean_stimulus":"<div style='color:white'>Score: 21</div>","bean_choices":[],"bean_correct_key":"","bean_type":"jsPsychHtmlKeyboardResponse","bean_text":"Score: 21","bean_color":"white","bean_correct":false},{"rt":808,"stimulus":["<div class=\"slotmachine\" style=\"position: absolute; top:10vh; left:10vw; width: 35vw; height: 35vh; border-color: orange;\"></div>","<div class=\"slotmachine\" style=\"position: absolute; top:10vh; left:55vw; width: 35vw; height: 35vh; border-color: blue;\"></div>"],"response":0,"value":0,"trial_type":"html-choice","trial_index":62,"time_elapsed":160576,"internal_node_id":"0.0-1.0-0.29","bean_trial_duration":null,"bean_duration":null,"bean_html_array":["<div class=\"slotmachine\" style=\"position: absolute; top:10vh; left:10vw; width: 35vw; height: 35vh; border-color: orange ></div>","<div class=\"slotmachine\" style=\"position: absolute; top:10vh; left:55vw; width: 35vw; height: 35vh; border-color: blue ></div>"],"bean_values":[0,0],"bean_time_after_response":2000,"bean_type":"jsPsychHtmlChoice","bean_bandits":[{"color":"orange","value":0},{"color":"blue","value":0}],"bean_value":0,"bean_score":21},{"rt":null,"stimulus":"<div style='color:white'>Score: 21</div>","response":null,"trial_type":"html-keyboard-response","trial_index":63,"time_elapsed":161586,"internal_node_id":"0.0-1.0-1.29","bean_trial_duration":1000,"bean_duration":1000,"bean_stimulus":"<div style='color:white'>Score: 21</div>","bean_choices":[],"bean_correct_key":"","bean_type":"jsPsychHtmlKeyboardResponse","bean_text":"Score: 21","bean_color":"white","bean_correct":false},{"rt":779,"stimulus":["<div class=\"slotmachine\" style=\"position: absolute; top:10vh; left:10vw; width: 35vw; height: 35vh; border-color: orange;\"></div>","<div class=\"slotmachine\" style=\"position: absolute; top:10vh; left:55vw; width: 35vw; height: 35vh; border-color: blue;\"></div>"],"response":0,"value":0,"trial_type":"html-choice","trial_index":64,"time_elapsed":164369,"internal_node_id":"0.0-1.0-0.30","bean_trial_duration":null,"bean_duration":null,"bean_html_array":["<div class=\"slotmachine\" style=\"position: absolute; top:10vh; left:10vw; width: 35vw; height: 35vh; border-color: orange ></div>","<div class=\"slotmachine\" style=\"position: absolute; top:10vh; left:55vw; width: 35vw; height: 35vh; border-color: blue ></div>"],"bean_values":[0,0],"bean_time_after_response":2000,"bean_type":"jsPsychHtmlChoice","bean_bandits":[{"color":"orange","value":0},{"color":"blue","value":0}],"bean_value":0,"bean_score":21},{"rt":null,"stimulus":"<div style='color:white'>Score: 21</div>","response":null,"trial_type":"html-keyboard-response","trial_index":65,"time_elapsed":165369,"internal_node_id":"0.0-1.0-1.30","bean_trial_duration":1000,"bean_duration":1000,"bean_stimulus":"<div style='color:white'>Score: 21</div>","bean_choices":[],"bean_correct_key":"","bean_type":"jsPsychHtmlKeyboardResponse","bean_text":"Score: 21","bean_color":"white","bean_correct":false},{"rt":645,"stimulus":["<div class=\"slotmachine\" style=\"position: absolute; top:10vh; left:10vw; width: 35vw; height: 35vh; border-color: orange;\"></div>","<div class=\"slotmachine\" style=\"position: absolute; top:10vh; left:55vw; width: 35vw; height: 35vh; border-color: blue;\"></div>"],"response":1,"value":1,"trial_type":"html-choice","trial_index":66,"time_elapsed":168019,"internal_node_id":"0.0-1.0-0.31","bean_trial_duration":null,"bean_duration":null,"bean_html_array":["<div class=\"slotmachine\" style=\"position: absolute; top:10vh; left:10vw; width: 35vw; height: 35vh; border-color: orange ></div>","<div class=\"slotmachine\" style=\"position: absolute; top:10vh; left:55vw; width: 35vw; height: 35vh; border-color: blue ></div>"],"bean_values":[1,1],"bean_time_after_response":2000,"bean_type":"jsPsychHtmlChoice","bean_bandits":[{"color":"orange","value":1},{"color":"blue","value":1}],"bean_value":1,"bean_score":22},{"rt":null,"stimulus":"<div style='color:white'>Score: 22</div>","response":null,"trial_type":"html-keyboard-response","trial_index":67,"time_elapsed":169027,"internal_node_id":"0.0-1.0-1.31","bean_trial_duration":1000,"bean_duration":1000,"bean_stimulus":"<div style='color:white'>Score: 22</div>","bean_choices":[],"bean_correct_key":"","bean_type":"jsPsychHtmlKeyboardResponse","bean_text":"Score: 22","bean_color":"white","bean_correct":false},{"rt":916,"stimulus":["<div class=\"slotmachine\" style=\"position: absolute; top:10vh; left:10vw; width: 35vw; height: 35vh; border-color: orange;\"></div>","<div class=\"slotmachine\" style=\"position: absolute; top:10vh; left:55vw; width: 35vw; height: 35vh; border-color: blue;\"></div>"],"response":1,"value":0,"trial_type":"html-choice","trial_index":68,"time_elapsed":171959,"internal_node_id":"0.0-1.0-0.32","bean_trial_duration":null,"bean_duration":null,"bean_html_array":["<div class=\"slotmachine\" style=\"position: absolute; top:10vh; left:10vw; width: 35vw; height: 35vh; border-color: orange ></div>","<div class=\"slotmachine\" style=\"position: absolute; top:10vh; left:55vw; width: 35vw; height: 35vh; border-color: blue ></div>"],"bean_values":[0,0],"bean_time_after_response":2000,"bean_type":"jsPsychHtmlChoice","bean_bandits":[{"color":"orange","value":0},{"color":"blue","value":0}],"bean_value":0,"bean_score":22},{"rt":null,"stimulus":"<div style='color:white'>Score: 22</div>","response":null,"trial_type":"html-keyboard-response","trial_index":69,"time_elapsed":172967,"internal_node_id":"0.0-1.0-1.32","bean_trial_duration":1000,"bean_duration":1000,"bean_stimulus":"<div style='color:white'>Score: 22</div>","bean_choices":[],"bean_correct_key":"","bean_type":"jsPsychHtmlKeyboardResponse","bean_text":"Score: 22","bean_color":"white","bean_correct":false},{"rt":966,"stimulus":["<div class=\"slotmachine\" style=\"position: absolute; top:10vh; left:10vw; width: 35vw; height: 35vh; border-color: orange;\"></div>","<div class=\"slotmachine\" style=\"position: absolute; top:10vh; left:55vw; width: 35vw; height: 35vh; border-color: blue;\"></div>"],"response":1,"value":1,"trial_type":"html-choice","trial_index":70,"time_elapsed":175949,"internal_node_id":"0.0-1.0-0.33","bean_trial_duration":null,"bean_duration":null,"bean_html_array":["<div class=\"slotmachine\" style=\"position: absolute; top:10vh; left:10vw; width: 35vw; height: 35vh; border-color: orange ></div>","<div class=\"slotmachine\" style=\"position: absolute; top:10vh; left:55vw; width: 35vw; height: 35vh; border-color: blue ></div>"],"bean_values":[1,1],"bean_time_after_response":2000,"bean_type":"jsPsychHtmlChoice","bean_bandits":[{"color":"orange","value":1},{"color":"blue","value":1}],"bean_value":1,"bean_score":23},{"rt":null,"stimulus":"<div style='color:white'>Score: 23</div>","response":null,"trial_type":"html-keyboard-response","trial_index":71,"time_elapsed":176957,"internal_node_id":"0.0-1.0-1.33","bean_trial_duration":1000,"bean_duration":1000,"bean_stimulus":"<div style='color:white'>Score: 23</div>","bean_choices":[],"bean_correct_key":"","bean_type":"jsPsychHtmlKeyboardResponse","bean_text":"Score: 23","bean_color":"white","bean_correct":false},{"rt":876,"stimulus":["<div class=\"slotmachine\" style=\"position: absolute; top:10vh; left:10vw; width: 35vw; height: 35vh; border-color: orange;\"></div>","<div class=\"slotmachine\" style=\"position: absolute; top:10vh; left:55vw; width: 35vw; height: 35vh; border-color: blue;\"></div>"],"response":1,"value":0,"trial_type":"html-choice","trial_index":72,"time_elapsed":179836,"internal_node_id":"0.0-1.0-0.34","bean_trial_duration":null,"bean_duration":null,"bean_html_array":["<div class=\"slotmachine\" style=\"position: absolute; top:10vh; left:10vw; width: 35vw; height: 35vh; border-color: orange ></div>","<div class=\"slotmachine\" style=\"position: absolute; top:10vh; left:55vw; width: 35vw; height: 35vh; border-color: blue ></div>"],"bean_values":[1,0],"bean_time_after_response":2000,"bean_type":"jsPsychHtmlChoice","bean_bandits":[{"color":"orange","value":1},{"color":"blue","value":0}],"bean_value":0,"bean_score":23},{"rt":null,"stimulus":"<div style='color:white'>Score: 23</div>","response":null,"trial_type":"html-keyboard-response","trial_index":73,"time_elapsed":180846,"internal_node_id":"0.0-1.0-1.34","bean_trial_duration":1000,"bean_duration":1000,"bean_stimulus":"<div style='color:white'>Score: 23</div>","bean_choices":[],"bean_correct_key":"","bean_type":"jsPsychHtmlKeyboardResponse","bean_text":"Score: 23","bean_color":"white","bean_correct":false},{"rt":811,"stimulus":["<div class=\"slotmachine\" style=\"position: absolute; top:10vh; left:10vw; width: 35vw; height: 35vh; border-color: orange;\"></div>","<div class=\"slotmachine\" style=\"position: absolute; top:10vh; left:55vw; width: 35vw; height: 35vh; border-color: blue;\"></div>"],"response":1,"value":0,"trial_type":"html-choice","trial_index":74,"time_elapsed":183673,"internal_node_id":"0.0-1.0-0.35","bean_trial_duration":null,"bean_duration":null,"bean_html_array":["<div class=\"slotmachine\" style=\"position: absolute; top:10vh; left:10vw; width: 35vw; height: 35vh; border-color: orange ></div>","<div class=\"slotmachine\" style=\"position: absolute; top:10vh; left:55vw; width: 35vw; height: 35vh; border-color: blue ></div>"],"bean_values":[0,0],"bean_time_after_response":2000,"bean_type":"jsPsychHtmlChoice","bean_bandits":[{"color":"orange","value":0},{"color":"blue","value":0}],"bean_value":0,"bean_score":23},{"rt":null,"stimulus":"<div style='color:white'>Score: 23</div>","response":null,"trial_type":"html-keyboard-response","trial_index":75,"time_elapsed":184685,"internal_node_id":"0.0-1.0-1.35","bean_trial_duration":1000,"bean_duration":1000,"bean_stimulus":"<div style='color:white'>Score: 23</div>","bean_choices":[],"bean_correct_key":"","bean_type":"jsPsychHtmlKeyboardResponse","bean_text":"Score: 23","bean_color":"white","bean_correct":false},{"rt":1210,"stimulus":["<div class=\"slotmachine\" style=\"position: absolute; top:10vh; left:10vw; width: 35vw; height: 35vh; border-color: orange;\"></div>","<div class=\"slotmachine\" style=\"position: absolute; top:10vh; left:55vw; width: 35vw; height: 35vh; border-color: blue;\"></div>"],"response":0,"value":1,"trial_type":"html-choice","trial_index":76,"time_elapsed":187897,"internal_node_id":"0.0-1.0-0.36","bean_trial_duration":null,"bean_duration":null,"bean_html_array":["<div class=\"slotmachine\" style=\"position: absolute; top:10vh; left:10vw; width: 35vw; height: 35vh; border-color: orange ></div>","<div class=\"slotmachine\" style=\"position: absolute; top:10vh; left:55vw; width: 35vw; height: 35vh; border-color: blue ></div>"],"bean_values":[1,0],"bean_time_after_response":2000,"bean_type":"jsPsychHtmlChoice","bean_bandits":[{"color":"orange","value":1},{"color":"blue","value":0}],"bean_value":1,"bean_score":24},{"rt":null,"stimulus":"<div style='color:white'>Score: 24</div>","response":null,"trial_type":"html-keyboard-response","trial_index":77,"time_elapsed":188908,"internal_node_id":"0.0-1.0-1.36","bean_trial_duration":1000,"bean_duration":1000,"bean_stimulus":"<div style='color:white'>Score: 24</div>","bean_choices":[],"bean_correct_key":"","bean_type":"jsPsychHtmlKeyboardResponse","bean_text":"Score: 24","bean_color":"white","bean_correct":false},{"rt":6094,"stimulus":["<div class=\"slotmachine\" style=\"position: absolute; top:10vh; left:10vw; width: 35vw; height: 35vh; border-color: orange;\"></div>","<div class=\"slotmachine\" style=\"position: absolute; top:10vh; left:55vw; width: 35vw; height: 35vh; border-color: blue;\"></div>"],"response":0,"value":1,"trial_type":"html-choice","trial_index":78,"time_elapsed":197004,"internal_node_id":"0.0-1.0-0.37","bean_trial_duration":null,"bean_duration":null,"bean_html_array":["<div class=\"slotmachine\" style=\"position: absolute; top:10vh; left:10vw; width: 35vw; height: 35vh; border-color: orange ></div>","<div class=\"slotmachine\" style=\"position: absolute; top:10vh; left:55vw; width: 35vw; height: 35vh; border-color: blue ></div>"],"bean_values":[1,0],"bean_time_after_response":2000,"bean_type":"jsPsychHtmlChoice","bean_bandits":[{"color":"orange","value":1},{"color":"blue","value":0}],"bean_value":1,"bean_score":25},{"rt":null,"stimulus":"<div style='color:white'>Score: 25</div>","response":null,"trial_type":"html-keyboard-response","trial_index":79,"time_elapsed":198010,"internal_node_id":"0.0-1.0-1.37","bean_trial_duration":1000,"bean_duration":1000,"bean_stimulus":"<div style='color:white'>Score: 25</div>","bean_choices":[],"bean_correct_key":"","bean_type":"jsPsychHtmlKeyboardResponse","bean_text":"Score: 25","bean_color":"white","bean_correct":false},{"rt":1181,"stimulus":["<div class=\"slotmachine\" style=\"position: absolute; top:10vh; left:10vw; width: 35vw; height: 35vh; border-color: orange;\"></div>","<div class=\"slotmachine\" style=\"position: absolute; top:10vh; left:55vw; width: 35vw; height: 35vh; border-color: blue;\"></div>"],"response":0,"value":0,"trial_type":"html-choice","trial_index":80,"time_elapsed":201193,"internal_node_id":"0.0-1.0-0.38","bean_trial_duration":null,"bean_duration":null,"bean_html_array":["<div class=\"slotmachine\" style=\"position: absolute; top:10vh; left:10vw; width: 35vw; height: 35vh; border-color: orange ></div>","<div class=\"slotmachine\" style=\"position: absolute; top:10vh; left:55vw; width: 35vw; height: 35vh; border-color: blue ></div>"],"bean_values":[0,1],"bean_time_after_response":2000,"bean_type":"jsPsychHtmlChoice","bean_bandits":[{"color":"orange","value":0},{"color":"blue","value":1}],"bean_value":0,"bean_score":25},{"rt":null,"stimulus":"<div style='color:white'>Score: 25</div>","response":null,"trial_type":"html-keyboard-response","trial_index":81,"time_elapsed":202205,"internal_node_id":"0.0-1.0-1.38","bean_trial_duration":1000,"bean_duration":1000,"bean_stimulus":"<div style='color:white'>Score: 25</div>","bean_choices":[],"bean_correct_key":"","bean_type":"jsPsychHtmlKeyboardResponse","bean_text":"Score: 25","bean_color":"white","bean_correct":false},{"rt":10871,"stimulus":["<div class=\"slotmachine\" style=\"position: absolute; top:10vh; left:10vw; width: 35vw; height: 35vh; border-color: orange;\"></div>","<div class=\"slotmachine\" style=\"position: absolute; top:10vh; left:55vw; width: 35vw; height: 35vh; border-color: blue;\"></div>"],"response":0,"value":1,"trial_type":"html-choice","trial_index":82,"time_elapsed":215078,"internal_node_id":"0.0-1.0-0.39","bean_trial_duration":null,"bean_duration":null,"bean_html_array":["<div class=\"slotmachine\" style=\"position: absolute; top:10vh; left:10vw; width: 35vw; height: 35vh; border-color: orange ></div>","<div class=\"slotmachine\" style=\"position: absolute; top:10vh; left:55vw; width: 35vw; height: 35vh; border-color: blue ></div>"],"bean_values":[1,0],"bean_time_after_response":2000,"bean_type":"jsPsychHtmlChoice","bean_bandits":[{"color":"orange","value":1},{"color":"blue","value":0}],"bean_value":1,"bean_score":26},{"rt":null,"stimulus":"<div style='color:white'>Score: 26</div>","response":null,"trial_type":"html-keyboard-response","trial_index":83,"time_elapsed":216083,"internal_node_id":"0.0-1.0-1.39","bean_trial_duration":1000,"bean_duration":1000,"bean_stimulus":"<div style='color:white'>Score: 26</div>","bean_choices":[],"bean_correct_key":"","bean_type":"jsPsychHtmlKeyboardResponse","bean_text":"Score: 26","bean_color":"white","bean_correct":false},{"rt":936,"stimulus":["<div class=\"slotmachine\" style=\"position: absolute; top:10vh; left:10vw; width: 35vw; height: 35vh; border-color: orange;\"></div>","<div class=\"slotmachine\" style=\"position: absolute; top:10vh; left:55vw; width: 35vw; height: 35vh; border-color: blue;\"></div>"],"response":0,"value":0,"trial_type":"html-choice","trial_index":84,"time_elapsed":219021,"internal_node_id":"0.0-1.0-0.40","bean_trial_duration":null,"bean_duration":null,"bean_html_array":["<div class=\"slotmachine\" style=\"position: absolute; top:10vh; left:10vw; width: 35vw; height: 35vh; border-color: orange ></div>","<div class=\"slotmachine\" style=\"position: absolute; top:10vh; left:55vw; width: 35vw; height: 35vh; border-color: blue ></div>"],"bean_values":[0,1],"bean_time_after_response":2000,"bean_type":"jsPsychHtmlChoice","bean_bandits":[{"color":"orange","value":0},{"color":"blue","value":1}],"bean_value":0,"bean_score":26},{"rt":null,"stimulus":"<div style='color:white'>Score: 26</div>","response":null,"trial_type":"html-keyboard-response","trial_index":85,"time_elapsed":220028,"internal_node_id":"0.0-1.0-1.40","bean_trial_duration":1000,"bean_duration":1000,"bean_stimulus":"<div style='color:white'>Score: 26</div>","bean_choices":[],"bean_correct_key":"","bean_type":"jsPsychHtmlKeyboardResponse","bean_text":"Score: 26","bean_color":"white","bean_correct":false},{"rt":3767,"stimulus":["<div class=\"slotmachine\" style=\"position: absolute; top:10vh; left:10vw; width: 35vw; height: 35vh; border-color: orange;\"></div>","<div class=\"slotmachine\" style=\"position: absolute; top:10vh; left:55vw; width: 35vw; height: 35vh; border-color: blue;\"></div>"],"response":0,"value":1,"trial_type":"html-choice","trial_index":86,"time_elapsed":225802,"internal_node_id":"0.0-1.0-0.41","bean_trial_duration":null,"bean_duration":null,"bean_html_array":["<div class=\"slotmachine\" style=\"position: absolute; top:10vh; left:10vw; width: 35vw; height: 35vh; border-color: orange ></div>","<div class=\"slotmachine\" style=\"position: absolute; top:10vh; left:55vw; width: 35vw; height: 35vh; border-color: blue ></div>"],"bean_values":[1,0],"bean_time_after_response":2000,"bean_type":"jsPsychHtmlChoice","bean_bandits":[{"color":"orange","value":1},{"color":"blue","value":0}],"bean_value":1,"bean_score":27},{"rt":null,"stimulus":"<div style='color:white'>Score: 27</div>","response":null,"trial_type":"html-keyboard-response","trial_index":87,"time_elapsed":226812,"internal_node_id":"0.0-1.0-1.41","bean_trial_duration":1000,"bean_duration":1000,"bean_stimulus":"<div style='color:white'>Score: 27</div>","bean_choices":[],"bean_correct_key":"","bean_type":"jsPsychHtmlKeyboardResponse","bean_text":"Score: 27","bean_color":"white","bean_correct":false},{"rt":2381,"stimulus":["<div class=\"slotmachine\" style=\"position: absolute; top:10vh; left:10vw; width: 35vw; height: 35vh; border-color: orange;\"></div>","<div class=\"slotmachine\" style=\"position: absolute; top:10vh; left:55vw; width: 35vw; height: 35vh; border-color: blue;\"></div>"],"response":0,"value":1,"trial_type":"html-choice","trial_index":88,"time_elapsed":231194,"internal_node_id":"0.0-1.0-0.42","bean_trial_duration":null,"bean_duration":null,"bean_html_array":["<div class=\"slotmachine\" style=\"position: absolute; top:10vh; left:10vw; width: 35vw; height: 35vh; border-color: orange ></div>","<div class=\"slotmachine\" style=\"position: absolute; top:10vh; left:55vw; width: 35vw; height: 35vh; border-color: blue ></div>"],"bean_values":[1,0],"bean_time_after_response":2000,"bean_type":"jsPsychHtmlChoice","bean_bandits":[{"color":"orange","value":1},{"color":"blue","value":0}],"bean_value":1,"bean_score":28},{"rt":null,"stimulus":"<div style='color:white'>Score: 28</div>","response":null,"trial_type":"html-keyboard-response","trial_index":89,"time_elapsed":232207,"internal_node_id":"0.0-1.0-1.42","bean_trial_duration":1000,"bean_duration":1000,"bean_stimulus":"<div style='color:white'>Score: 28</div>","bean_choices":[],"bean_correct_key":"","bean_type":"jsPsychHtmlKeyboardResponse","bean_text":"Score: 28","bean_color":"white","bean_correct":false},{"rt":1213,"stimulus":["<div class=\"slotmachine\" style=\"position: absolute; top:10vh; left:10vw; width: 35vw; height: 35vh; border-color: orange;\"></div>","<div class=\"slotmachine\" style=\"position: absolute; top:10vh; left:55vw; width: 35vw; height: 35vh; border-color: blue;\"></div>"],"response":0,"value":1,"trial_type":"html-choice","trial_index":90,"time_elapsed":235422,"internal_node_id":"0.0-1.0-0.43","bean_trial_duration":null,"bean_duration":null,"bean_html_array":["<div class=\"slotmachine\" style=\"position: absolute; top:10vh; left:10vw; width: 35vw; height: 35vh; border-color: orange ></div>","<div class=\"slotmachine\" style=\"position: absolute; top:10vh; left:55vw; width: 35vw; height: 35vh; border-color: blue ></div>"],"bean_values":[1,0],"bean_time_after_response":2000,"bean_type":"jsPsychHtmlChoice","bean_bandits":[{"color":"orange","value":1},{"color":"blue","value":0}],"bean_value":1,"bean_score":29},{"rt":null,"stimulus":"<div style='color:white'>Score: 29</div>","response":null,"trial_type":"html-keyboard-response","trial_index":91,"time_elapsed":236425,"internal_node_id":"0.0-1.0-1.43","bean_trial_duration":1000,"bean_duration":1000,"bean_stimulus":"<div style='color:white'>Score: 29</div>","bean_choices":[],"bean_correct_key":"","bean_type":"jsPsychHtmlKeyboardResponse","bean_text":"Score: 29","bean_color":"white","bean_correct":false},{"rt":1146,"stimulus":["<div class=\"slotmachine\" style=\"position: absolute; top:10vh; left:10vw; width: 35vw; height: 35vh; border-color: orange;\"></div>","<div class=\"slotmachine\" style=\"position: absolute; top:10vh; left:55vw; width: 35vw; height: 35vh; border-color: blue;\"></div>"],"response":0,"value":1,"trial_type":"html-choice","trial_index":92,"time_elapsed":239573,"internal_node_id":"0.0-1.0-0.44","bean_trial_duration":null,"bean_duration":null,"bean_html_array":["<div class=\"slotmachine\" style=\"position: absolute; top:10vh; left:10vw; width: 35vw; height: 35vh; border-color: orange ></div>","<div class=\"slotmachine\" style=\"position: absolute; top:10vh; left:55vw; width: 35vw; height: 35vh; border-color: blue ></div>"],"bean_values":[1,0],"bean_time_after_response":2000,"bean_type":"jsPsychHtmlChoice","bean_bandits":[{"color":"orange","value":1},{"color":"blue","value":0}],"bean_value":1,"bean_score":30},{"rt":null,"stimulus":"<div style='color:white'>Score: 30</div>","response":null,"trial_type":"html-keyboard-response","trial_index":93,"time_elapsed":240578,"internal_node_id":"0.0-1.0-1.44","bean_trial_duration":1000,"bean_duration":1000,"bean_stimulus":"<div style='color:white'>Score: 30</div>","bean_choices":[],"bean_correct_key":"","bean_type":"jsPsychHtmlKeyboardResponse","bean_text":"Score: 30","bean_color":"white","bean_correct":false},{"rt":954,"stimulus":["<div class=\"slotmachine\" style=\"position: absolute; top:10vh; left:10vw; width: 35vw; height: 35vh; border-color: orange;\"></div>","<div class=\"slotmachine\" style=\"position: absolute; top:10vh; left:55vw; width: 35vw; height: 35vh; border-color: blue;\"></div>"],"response":0,"value":1,"trial_type":"html-choice","trial_index":94,"time_elapsed":243544,"internal_node_id":"0.0-1.0-0.45","bean_trial_duration":null,"bean_duration":null,"bean_html_array":["<div class=\"slotmachine\" style=\"position: absolute; top:10vh; left:10vw; width: 35vw; height: 35vh; border-color: orange ></div>","<div class=\"slotmachine\" style=\"position: absolute; top:10vh; left:55vw; width: 35vw; height: 35vh; border-color: blue ></div>"],"bean_values":[1,1],"bean_time_after_response":2000,"bean_type":"jsPsychHtmlChoice","bean_bandits":[{"color":"orange","value":1},{"color":"blue","value":1}],"bean_value":1,"bean_score":31},{"rt":null,"stimulus":"<div style='color:white'>Score: 31</div>","response":null,"trial_type":"html-keyboard-response","trial_index":95,"time_elapsed":244555,"internal_node_id":"0.0-1.0-1.45","bean_trial_duration":1000,"bean_duration":1000,"bean_stimulus":"<div style='color:white'>Score: 31</div>","bean_choices":[],"bean_correct_key":"","bean_type":"jsPsychHtmlKeyboardResponse","bean_text":"Score: 31","bean_color":"white","bean_correct":false},{"rt":803,"stimulus":["<div class=\"slotmachine\" style=\"position: absolute; top:10vh; left:10vw; width: 35vw; height: 35vh; border-color: orange;\"></div>","<div class=\"slotmachine\" style=\"position: absolute; top:10vh; left:55vw; width: 35vw; height: 35vh; border-color: blue;\"></div>"],"response":0,"value":1,"trial_type":"html-choice","trial_index":96,"time_elapsed":247359,"internal_node_id":"0.0-1.0-0.46","bean_trial_duration":null,"bean_duration":null,"bean_html_array":["<div class=\"slotmachine\" style=\"position: absolute; top:10vh; left:10vw; width: 35vw; height: 35vh; border-color: orange ></div>","<div class=\"slotmachine\" style=\"position: absolute; top:10vh; left:55vw; width: 35vw; height: 35vh; border-color: blue ></div>"],"bean_values":[1,0],"bean_time_after_response":2000,"bean_type":"jsPsychHtmlChoice","bean_bandits":[{"color":"orange","value":1},{"color":"blue","value":0}],"bean_value":1,"bean_score":32},{"rt":null,"stimulus":"<div style='color:white'>Score: 32</div>","response":null,"trial_type":"html-keyboard-response","trial_index":97,"time_elapsed":248374,"internal_node_id":"0.0-1.0-1.46","bean_trial_duration":1000,"bean_duration":1000,"bean_stimulus":"<div style='color:white'>Score: 32</div>","bean_choices":[],"bean_correct_key":"","bean_type":"jsPsychHtmlKeyboardResponse","bean_text":"Score: 32","bean_color":"white","bean_correct":false},{"rt":1962,"stimulus":["<div class=\"slotmachine\" style=\"position: absolute; top:10vh; left:10vw; width: 35vw; height: 35vh; border-color: orange;\"></div>","<div class=\"slotmachine\" style=\"position: absolute; top:10vh; left:55vw; width: 35vw; height: 35vh; border-color: blue;\"></div>"],"response":0,"value":1,"trial_type":"html-choice","trial_index":98,"time_elapsed":252337,"internal_node_id":"0.0-1.0-0.47","bean_trial_duration":null,"bean_duration":null,"bean_html_array":["<div class=\"slotmachine\" style=\"position: absolute; top:10vh; left:10vw; width: 35vw; height: 35vh; border-color: orange ></div>","<div class=\"slotmachine\" style=\"position: absolute; top:10vh; left:55vw; width: 35vw; height: 35vh; border-color: blue ></div>"],"bean_values":[1,0],"bean_time_after_response":2000,"bean_type":"jsPsychHtmlChoice","bean_bandits":[{"color":"orange","value":1},{"color":"blue","value":0}],"bean_value":1,"bean_score":33},{"rt":null,"stimulus":"<div style='color:white'>Score: 33</div>","response":null,"trial_type":"html-keyboard-response","trial_index":99,"time_elapsed":253348,"internal_node_id":"0.0-1.0-1.47","bean_trial_duration":1000,"bean_duration":1000,"bean_stimulus":"<div style='color:white'>Score: 33</div>","bean_choices":[],"bean_correct_key":"","bean_type":"jsPsychHtmlKeyboardResponse","bean_text":"Score: 33","bean_color":"white","bean_correct":false},{"rt":1041,"stimulus":["<div class=\"slotmachine\" style=\"position: absolute; top:10vh; left:10vw; width: 35vw; height: 35vh; border-color: orange;\"></div>","<div class=\"slotmachine\" style=\"position: absolute; top:10vh; left:55vw; width: 35vw; height: 35vh; border-color: blue;\"></div>"],"response":0,"value":1,"trial_type":"html-choice","trial_index":100,"time_elapsed":256392,"internal_node_id":"0.0-1.0-0.48","bean_trial_duration":null,"bean_duration":null,"bean_html_array":["<div class=\"slotmachine\" style=\"position: absolute; top:10vh; left:10vw; width: 35vw; height: 35vh; border-color: orange ></div>","<div class=\"slotmachine\" style=\"position: absolute; top:10vh; left:55vw; width: 35vw; height: 35vh; border-color: blue ></div>"],"bean_values":[1,0],"bean_time_after_response":2000,"bean_type":"jsPsychHtmlChoice","bean_bandits":[{"color":"orange","value":1},{"color":"blue","value":0}],"bean_value":1,"bean_score":34},{"rt":null,"stimulus":"<div style='color:white'>Score: 34</div>","response":null,"trial_type":"html-keyboard-response","trial_index":101,"time_elapsed":257398,"internal_node_id":"0.0-1.0-1.48","bean_trial_duration":1000,"bean_duration":1000,"bean_stimulus":"<div style='color:white'>Score: 34</div>","bean_choices":[],"bean_correct_key":"","bean_type":"jsPsychHtmlKeyboardResponse","bean_text":"Score: 34","bean_color":"white","bean_correct":false},{"rt":1201,"stimulus":["<div class=\"slotmachine\" style=\"position: absolute; top:10vh; left:10vw; width: 35vw; height: 35vh; border-color: orange;\"></div>","<div class=\"slotmachine\" style=\"position: absolute; top:10vh; left:55vw; width: 35vw; height: 35vh; border-color: blue;\"></div>"],"response":0,"value":1,"trial_type":"html-choice","trial_index":102,"time_elapsed":260600,"internal_node_id":"0.0-1.0-0.49","bean_trial_duration":null,"bean_duration":null,"bean_html_array":["<div class=\"slotmachine\" style=\"position: absolute; top:10vh; left:10vw; width: 35vw; height: 35vh; border-color: orange ></div>","<div class=\"slotmachine\" style=\"position: absolute; top:10vh; left:55vw; width: 35vw; height: 35vh; border-color: blue ></div>"],"bean_values":[1,0],"bean_time_after_response":2000,"bean_type":"jsPsychHtmlChoice","bean_bandits":[{"color":"orange","value":1},{"color":"blue","value":0}],"bean_value":1,"bean_score":35},{"rt":null,"stimulus":"<div style='color:white'>Score: 35</div>","response":null,"trial_type":"html-keyboard-response","trial_index":103,"time_elapsed":261609,"internal_node_id":"0.0-1.0-1.49","bean_trial_duration":1000,"bean_duration":1000,"bean_stimulus":"<div style='color:white'>Score: 35</div>","bean_choices":[],"bean_correct_key":"","bean_type":"jsPsychHtmlKeyboardResponse","bean_text":"Score: 35","bean_color":"white","bean_correct":false},{"rt":2835,"stimulus":["<div class=\"slotmachine\" style=\"position: absolute; top:10vh; left:10vw; width: 35vw; height: 35vh; border-color: orange;\"></div>","<div class=\"slotmachine\" style=\"position: absolute; top:10vh; left:55vw; width: 35vw; height: 35vh; border-color: blue;\"></div>"],"response":0,"value":0,"trial_type":"html-choice","trial_index":104,"time_elapsed":266445,"internal_node_id":"0.0-1.0-0.50","bean_trial_duration":null,"bean_duration":null,"bean_html_array":["<div class=\"slotmachine\" style=\"position: absolute; top:10vh; left:10vw; width: 35vw; height: 35vh; border-color: orange ></div>","<div class=\"slotmachine\" style=\"position: absolute; top:10vh; left:55vw; width: 35vw; height: 35vh; border-color: blue ></div>"],"bean_values":[0,0],"bean_time_after_response":2000,"bean_type":"jsPsychHtmlChoice","bean_bandits":[{"color":"orange","value":0},{"color":"blue","value":0}],"bean_value":0,"bean_score":35},{"rt":null,"stimulus":"<div style='color:white'>Score: 35</div>","response":null,"trial_type":"html-keyboard-response","trial_index":105,"time_elapsed":267459,"internal_node_id":"0.0-1.0-1.50","bean_trial_duration":1000,"bean_duration":1000,"bean_stimulus":"<div style='color:white'>Score: 35</div>","bean_choices":[],"bean_correct_key":"","bean_type":"jsPsychHtmlKeyboardResponse","bean_text":"Score: 35","bean_color":"white","bean_correct":false},{"rt":1883,"stimulus":["<div class=\"slotmachine\" style=\"position: absolute; top:10vh; left:10vw; width: 35vw; height: 35vh; border-color: orange;\"></div>","<div class=\"slotmachine\" style=\"position: absolute; top:10vh; left:55vw; width: 35vw; height: 35vh; border-color: blue;\"></div>"],"response":0,"value":0,"trial_type":"html-choice","trial_index":106,"time_elapsed":271350,"internal_node_id":"0.0-1.0-0.51","bean_trial_duration":null,"bean_duration":null,"bean_html_array":["<div class=\"slotmachine\" style=\"position: absolute; top:10vh; left:10vw; width: 35vw; height: 35vh; border-color: orange ></div>","<div class=\"slotmachine\" style=\"position: absolute; top:10vh; left:55vw; width: 35vw; height: 35vh; border-color: blue ></div>"],"bean_values":[0,0],"bean_time_after_response":2000,"bean_type":"jsPsychHtmlChoice","bean_bandits":[{"color":"orange","value":0},{"color":"blue","value":0}],"bean_value":0,"bean_score":35},{"rt":null,"stimulus":"<div style='color:white'>Score: 35</div>","response":null,"trial_type":"html-keyboard-response","trial_index":107,"time_elapsed":272353,"internal_node_id":"0.0-1.0-1.51","bean_trial_duration":1000,"bean_duration":1000,"bean_stimulus":"<div style='color:white'>Score: 35</div>","bean_choices":[],"bean_correct_key":"","bean_type":"jsPsychHtmlKeyboardResponse","bean_text":"Score: 35","bean_color":"white","bean_correct":false},{"rt":793,"stimulus":["<div class=\"slotmachine\" style=\"position: absolute; top:10vh; left:10vw; width: 35vw; height: 35vh; border-color: orange;\"></div>","<div class=\"slotmachine\" style=\"position: absolute; top:10vh; left:55vw; width: 35vw; height: 35vh; border-color: blue;\"></div>"],"response":0,"value":1,"trial_type":"html-choice","trial_index":108,"time_elapsed":275160,"internal_node_id":"0.0-1.0-0.52","bean_trial_duration":null,"bean_duration":null,"bean_html_array":["<div class=\"slotmachine\" style=\"position: absolute; top:10vh; left:10vw; width: 35vw; height: 35vh; border-color: orange ></div>","<div class=\"slotmachine\" style=\"position: absolute; top:10vh; left:55vw; width: 35vw; height: 35vh; border-color: blue ></div>"],"bean_values":[1,1],"bean_time_after_response":2000,"bean_type":"jsPsychHtmlChoice","bean_bandits":[{"color":"orange","value":1},{"color":"blue","value":1}],"bean_value":1,"bean_score":36},{"rt":null,"stimulus":"<div style='color:white'>Score: 36</div>","response":null,"trial_type":"html-keyboard-response","trial_index":109,"time_elapsed":276161,"internal_node_id":"0.0-1.0-1.52","bean_trial_duration":1000,"bean_duration":1000,"bean_stimulus":"<div style='color:white'>Score: 36</div>","bean_choices":[],"bean_correct_key":"","bean_type":"jsPsychHtmlKeyboardResponse","bean_text":"Score: 36","bean_color":"white","bean_correct":false},{"rt":985,"stimulus":["<div class=\"slotmachine\" style=\"position: absolute; top:10vh; left:10vw; width: 35vw; height: 35vh; border-color: orange;\"></div>","<div class=\"slotmachine\" style=\"position: absolute; top:10vh; left:55vw; width: 35vw; height: 35vh; border-color: blue;\"></div>"],"response":0,"value":0,"trial_type":"html-choice","trial_index":110,"time_elapsed":279149,"internal_node_id":"0.0-1.0-0.53","bean_trial_duration":null,"bean_duration":null,"bean_html_array":["<div class=\"slotmachine\" style=\"position: absolute; top:10vh; left:10vw; width: 35vw; height: 35vh; border-color: orange ></div>","<div class=\"slotmachine\" style=\"position: absolute; top:10vh; left:55vw; width: 35vw; height: 35vh; border-color: blue ></div>"],"bean_values":[0,1],"bean_time_after_response":2000,"bean_type":"jsPsychHtmlChoice","bean_bandits":[{"color":"orange","value":0},{"color":"blue","value":1}],"bean_value":0,"bean_score":36},{"rt":null,"stimulus":"<div style='color:white'>Score: 36</div>","response":null,"trial_type":"html-keyboard-response","trial_index":111,"time_elapsed":280150,"internal_node_id":"0.0-1.0-1.53","bean_trial_duration":1000,"bean_duration":1000,"bean_stimulus":"<div style='color:white'>Score: 36</div>","bean_choices":[],"bean_correct_key":"","bean_type":"jsPsychHtmlKeyboardResponse","bean_text":"Score: 36","bean_color":"white","bean_correct":false},{"rt":1835,"stimulus":["<div class=\"slotmachine\" style=\"position: absolute; top:10vh; left:10vw; width: 35vw; height: 35vh; border-color: orange;\"></div>","<div class=\"slotmachine\" style=\"position: absolute; top:10vh; left:55vw; width: 35vw; height: 35vh; border-color: blue;\"></div>"],"response":1,"value":1,"trial_type":"html-choice","trial_index":112,"time_elapsed":283987,"internal_node_id":"0.0-1.0-0.54","bean_trial_duration":null,"bean_duration":null,"bean_html_array":["<div class=\"slotmachine\" style=\"position: absolute; top:10vh; left:10vw; width: 35vw; height: 35vh; border-color: orange ></div>","<div class=\"slotmachine\" style=\"position: absolute; top:10vh; left:55vw; width: 35vw; height: 35vh; border-color: blue ></div>"],"bean_values":[0,1],"bean_time_after_response":2000,"bean_type":"jsPsychHtmlChoice","bean_bandits":[{"color":"orange","value":0},{"color":"blue","value":1}],"bean_value":1,"bean_score":37},{"rt":null,"stimulus":"<div style='color:white'>Score: 37</div>","response":null,"trial_type":"html-keyboard-response","trial_index":113,"time_elapsed":284991,"internal_node_id":"0.0-1.0-1.54","bean_trial_duration":1000,"bean_duration":1000,"bean_stimulus":"<div style='color:white'>Score: 37</div>","bean_choices":[],"bean_correct_key":"","bean_type":"jsPsychHtmlKeyboardResponse","bean_text":"Score: 37","bean_color":"white","bean_correct":false},{"rt":902,"stimulus":["<div class=\"slotmachine\" style=\"position: absolute; top:10vh; left:10vw; width: 35vw; height: 35vh; border-color: orange;\"></div>","<div class=\"slotmachine\" style=\"position: absolute; top:10vh; left:55vw; width: 35vw; height: 35vh; border-color: blue;\"></div>"],"response":1,"value":0,"trial_type":"html-choice","trial_index":114,"time_elapsed":287894,"internal_node_id":"0.0-1.0-0.55","bean_trial_duration":null,"bean_duration":null,"bean_html_array":["<div class=\"slotmachine\" style=\"position: absolute; top:10vh; left:10vw; width: 35vw; height: 35vh; border-color: orange ></div>","<div class=\"slotmachine\" style=\"position: absolute; top:10vh; left:55vw; width: 35vw; height: 35vh; border-color: blue ></div>"],"bean_values":[0,0],"bean_time_after_response":2000,"bean_type":"jsPsychHtmlChoice","bean_bandits":[{"color":"orange","value":0},{"color":"blue","value":0}],"bean_value":0,"bean_score":37},{"rt":null,"stimulus":"<div style='color:white'>Score: 37</div>","response":null,"trial_type":"html-keyboard-response","trial_index":115,"time_elapsed":288902,"internal_node_id":"0.0-1.0-1.55","bean_trial_duration":1000,"bean_duration":1000,"bean_stimulus":"<div style='color:white'>Score: 37</div>","bean_choices":[],"bean_correct_key":"","bean_type":"jsPsychHtmlKeyboardResponse","bean_text":"Score: 37","bean_color":"white","bean_correct":false},{"rt":716,"stimulus":["<div class=\"slotmachine\" style=\"position: absolute; top:10vh; left:10vw; width: 35vw; height: 35vh; border-color: orange;\"></div>","<div class=\"slotmachine\" style=\"position: absolute; top:10vh; left:55vw; width: 35vw; height: 35vh; border-color: blue;\"></div>"],"response":1,"value":0,"trial_type":"html-choice","trial_index":116,"time_elapsed":291620,"internal_node_id":"0.0-1.0-0.56","bean_trial_duration":null,"bean_duration":null,"bean_html_array":["<div class=\"slotmachine\" style=\"position: absolute; top:10vh; left:10vw; width: 35vw; height: 35vh; border-color: orange ></div>","<div class=\"slotmachine\" style=\"position: absolute; top:10vh; left:55vw; width: 35vw; height: 35vh; border-color: blue ></div>"],"bean_values":[0,0],"bean_time_after_response":2000,"bean_type":"jsPsychHtmlChoice","bean_bandits":[{"color":"orange","value":0},{"color":"blue","value":0}],"bean_value":0,"bean_score":37},{"rt":null,"stimulus":"<div style='color:white'>Score: 37</div>","response":null,"trial_type":"html-keyboard-response","trial_index":117,"time_elapsed":292629,"internal_node_id":"0.0-1.0-1.56","bean_trial_duration":1000,"bean_duration":1000,"bean_stimulus":"<div style='color:white'>Score: 37</div>","bean_choices":[],"bean_correct_key":"","bean_type":"jsPsychHtmlKeyboardResponse","bean_text":"Score: 37","bean_color":"white","bean_correct":false},{"rt":669,"stimulus":["<div class=\"slotmachine\" style=\"position: absolute; top:10vh; left:10vw; width: 35vw; height: 35vh; border-color: orange;\"></div>","<div class=\"slotmachine\" style=\"position: absolute; top:10vh; left:55vw; width: 35vw; height: 35vh; border-color: blue;\"></div>"],"response":0,"value":0,"trial_type":"html-choice","trial_index":118,"time_elapsed":295300,"internal_node_id":"0.0-1.0-0.57","bean_trial_duration":null,"bean_duration":null,"bean_html_array":["<div class=\"slotmachine\" style=\"position: absolute; top:10vh; left:10vw; width: 35vw; height: 35vh; border-color: orange ></div>","<div class=\"slotmachine\" style=\"position: absolute; top:10vh; left:55vw; width: 35vw; height: 35vh; border-color: blue ></div>"],"bean_values":[0,1],"bean_time_after_response":2000,"bean_type":"jsPsychHtmlChoice","bean_bandits":[{"color":"orange","value":0},{"color":"blue","value":1}],"bean_value":0,"bean_score":37},{"rt":null,"stimulus":"<div style='color:white'>Score: 37</div>","response":null,"trial_type":"html-keyboard-response","trial_index":119,"time_elapsed":296313,"internal_node_id":"0.0-1.0-1.57","bean_trial_duration":1000,"bean_duration":1000,"bean_stimulus":"<div style='color:white'>Score: 37</div>","bean_choices":[],"bean_correct_key":"","bean_type":"jsPsychHtmlKeyboardResponse","bean_text":"Score: 37","bean_color":"white","bean_correct":false},{"rt":839,"stimulus":["<div class=\"slotmachine\" style=\"position: absolute; top:10vh; left:10vw; width: 35vw; height: 35vh; border-color: orange;\"></div>","<div class=\"slotmachine\" style=\"position: absolute; top:10vh; left:55vw; width: 35vw; height: 35vh; border-color: blue;\"></div>"],"response":0,"value":0,"trial_type":"html-choice","trial_index":120,"time_elapsed":299155,"internal_node_id":"0.0-1.0-0.58","bean_trial_duration":null,"bean_duration":null,"bean_html_array":["<div class=\"slotmachine\" style=\"position: absolute; top:10vh; left:10vw; width: 35vw; height: 35vh; border-color: orange ></div>","<div class=\"slotmachine\" style=\"position: absolute; top:10vh; left:55vw; width: 35vw; height: 35vh; border-color: blue ></div>"],"bean_values":[0,1],"bean_time_after_response":2000,"bean_type":"jsPsychHtmlChoice","bean_bandits":[{"color":"orange","value":0},{"color":"blue","value":1}],"bean_value":0,"bean_score":37},{"rt":null,"stimulus":"<div style='color:white'>Score: 37</div>","response":null,"trial_type":"html-keyboard-response","trial_index":121,"time_elapsed":300171,"internal_node_id":"0.0-1.0-1.58","bean_trial_duration":1000,"bean_duration":1000,"bean_stimulus":"<div style='color:white'>Score: 37</div>","bean_choices":[],"bean_correct_key":"","bean_type":"jsPsychHtmlKeyboardResponse","bean_text":"Score: 37","bean_color":"white","bean_correct":false},{"rt":747,"stimulus":["<div class=\"slotmachine\" style=\"position: absolute; top:10vh; left:10vw; width: 35vw; height: 35vh; border-color: orange;\"></div>","<div class=\"slotmachine\" style=\"position: absolute; top:10vh; left:55vw; width: 35vw; height: 35vh; border-color: blue;\"></div>"],"response":0,"value":0,"trial_type":"html-choice","trial_index":122,"time_elapsed":302921,"internal_node_id":"0.0-1.0-0.59","bean_trial_duration":null,"bean_duration":null,"bean_html_array":["<div class=\"slotmachine\" style=\"position: absolute; top:10vh; left:10vw; width: 35vw; height: 35vh; border-color: orange ></div>","<div class=\"slotmachine\" style=\"position: absolute; top:10vh; left:55vw; width: 35vw; height: 35vh; border-color: blue ></div>"],"bean_values":[0,1],"bean_time_after_response":2000,"bean_type":"jsPsychHtmlChoice","bean_bandits":[{"color":"orange","value":0},{"color":"blue","value":1}],"bean_value":0,"bean_score":37},{"rt":null,"stimulus":"<div style='color:white'>Score: 37</div>","response":null,"trial_type":"html-keyboard-response","trial_index":123,"time_elapsed":303927,"internal_node_id":"0.0-1.0-1.59","bean_trial_duration":1000,"bean_duration":1000,"bean_stimulus":"<div style='color:white'>Score: 37</div>","bean_choices":[],"bean_correct_key":"","bean_type":"jsPsychHtmlKeyboardResponse","bean_text":"Score: 37","bean_color":"white","bean_correct":false},{"rt":1051,"stimulus":["<div class=\"slotmachine\" style=\"position: absolute; top:10vh; left:10vw; width: 35vw; height: 35vh; border-color: orange;\"></div>","<div class=\"slotmachine\" style=\"position: absolute; top:10vh; left:55vw; width: 35vw; height: 35vh; border-color: blue;\"></div>"],"response":0,"value":1,"trial_type":"html-choice","trial_index":124,"time_elapsed":306983,"internal_node_id":"0.0-1.0-0.60","bean_trial_duration":null,"bean_duration":null,"bean_html_array":["<div class=\"slotmachine\" style=\"position: absolute; top:10vh; left:10vw; width: 35vw; height: 35vh; border-color: orange ></div>","<div class=\"slotmachine\" style=\"position: absolute; top:10vh; left:55vw; width: 35vw; height: 35vh; border-color: blue ></div>"],"bean_values":[1,1],"bean_time_after_response":2000,"bean_type":"jsPsychHtmlChoice","bean_bandits":[{"color":"orange","value":1},{"color":"blue","value":1}],"bean_value":1,"bean_score":38},{"rt":null,"stimulus":"<div style='color:white'>Score: 38</div>","response":null,"trial_type":"html-keyboard-response","trial_index":125,"time_elapsed":307984,"internal_node_id":"0.0-1.0-1.60","bean_trial_duration":1000,"bean_duration":1000,"bean_stimulus":"<div style='color:white'>Score: 38</div>","bean_choices":[],"bean_correct_key":"","bean_type":"jsPsychHtmlKeyboardResponse","bean_text":"Score: 38","bean_color":"white","bean_correct":false},{"rt":795,"stimulus":["<div class=\"slotmachine\" style=\"position: absolute; top:10vh; left:10vw; width: 35vw; height: 35vh; border-color: orange;\"></div>","<div class=\"slotmachine\" style=\"position: absolute; top:10vh; left:55vw; width: 35vw; height: 35vh; border-color: blue;\"></div>"],"response":0,"value":0,"trial_type":"html-choice","trial_index":126,"time_elapsed":310793,"internal_node_id":"0.0-1.0-0.61","bean_trial_duration":null,"bean_duration":null,"bean_html_array":["<div class=\"slotmachine\" style=\"position: absolute; top:10vh; left:10vw; width: 35vw; height: 35vh; border-color: orange ></div>","<div class=\"slotmachine\" style=\"position: absolute; top:10vh; left:55vw; width: 35vw; height: 35vh; border-color: blue ></div>"],"bean_values":[0,1],"bean_time_after_response":2000,"bean_type":"jsPsychHtmlChoice","bean_bandits":[{"color":"orange","value":0},{"color":"blue","value":1}],"bean_value":0,"bean_score":38},{"rt":null,"stimulus":"<div style='color:white'>Score: 38</div>","response":null,"trial_type":"html-keyboard-response","trial_index":127,"time_elapsed":311805,"internal_node_id":"0.0-1.0-1.61","bean_trial_duration":1000,"bean_duration":1000,"bean_stimulus":"<div style='color:white'>Score: 38</div>","bean_choices":[],"bean_correct_key":"","bean_type":"jsPsychHtmlKeyboardResponse","bean_text":"Score: 38","bean_color":"white","bean_correct":false},{"rt":575,"stimulus":["<div class=\"slotmachine\" style=\"position: absolute; top:10vh; left:10vw; width: 35vw; height: 35vh; border-color: orange;\"></div>","<div class=\"slotmachine\" style=\"position: absolute; top:10vh; left:55vw; width: 35vw; height: 35vh; border-color: blue;\"></div>"],"response":1,"value":0,"trial_type":"html-choice","trial_index":128,"time_elapsed":314397,"internal_node_id":"0.0-1.0-0.62","bean_trial_duration":null,"bean_duration":null,"bean_html_array":["<div class=\"slotmachine\" style=\"position: absolute; top:10vh; left:10vw; width: 35vw; height: 35vh; border-color: orange ></div>","<div class=\"slotmachine\" style=\"position: absolute; top:10vh; left:55vw; width: 35vw; height: 35vh; border-color: blue ></div>"],"bean_values":[1,0],"bean_time_after_response":2000,"bean_type":"jsPsychHtmlChoice","bean_bandits":[{"color":"orange","value":1},{"color":"blue","value":0}],"bean_value":0,"bean_score":38},{"rt":null,"stimulus":"<div style='color:white'>Score: 38</div>","response":null,"trial_type":"html-keyboard-response","trial_index":129,"time_elapsed":315410,"internal_node_id":"0.0-1.0-1.62","bean_trial_duration":1000,"bean_duration":1000,"bean_stimulus":"<div style='color:white'>Score: 38</div>","bean_choices":[],"bean_correct_key":"","bean_type":"jsPsychHtmlKeyboardResponse","bean_text":"Score: 38","bean_color":"white","bean_correct":false},{"rt":799,"stimulus":["<div class=\"slotmachine\" style=\"position: absolute; top:10vh; left:10vw; width: 35vw; height: 35vh; border-color: orange;\"></div>","<div class=\"slotmachine\" style=\"position: absolute; top:10vh; left:55vw; width: 35vw; height: 35vh; border-color: blue;\"></div>"],"response":1,"value":1,"trial_type":"html-choice","trial_index":130,"time_elapsed":318218,"internal_node_id":"0.0-1.0-0.63","bean_trial_duration":null,"bean_duration":null,"bean_html_array":["<div class=\"slotmachine\" style=\"position: absolute; top:10vh; left:10vw; width: 35vw; height: 35vh; border-color: orange ></div>","<div class=\"slotmachine\" style=\"position: absolute; top:10vh; left:55vw; width: 35vw; height: 35vh; border-color: blue ></div>"],"bean_values":[0,1],"bean_time_after_response":2000,"bean_type":"jsPsychHtmlChoice","bean_bandits":[{"color":"orange","value":0},{"color":"blue","value":1}],"bean_value":1,"bean_score":39},{"rt":null,"stimulus":"<div style='color:white'>Score: 39</div>","response":null,"trial_type":"html-keyboard-response","trial_index":131,"time_elapsed":319233,"internal_node_id":"0.0-1.0-1.63","bean_trial_duration":1000,"bean_duration":1000,"bean_stimulus":"<div style='color:white'>Score: 39</div>","bean_choices":[],"bean_correct_key":"","bean_type":"jsPsychHtmlKeyboardResponse","bean_text":"Score: 39","bean_color":"white","bean_correct":false},{"rt":1016,"stimulus":["<div class=\"slotmachine\" style=\"position: absolute; top:10vh; left:10vw; width: 35vw; height: 35vh; border-color: orange;\"></div>","<div class=\"slotmachine\" style=\"position: absolute; top:10vh; left:55vw; width: 35vw; height: 35vh; border-color: blue;\"></div>"],"response":1,"value":1,"trial_type":"html-choice","trial_index":132,"time_elapsed":322254,"internal_node_id":"0.0-1.0-0.64","bean_trial_duration":null,"bean_duration":null,"bean_html_array":["<div class=\"slotmachine\" style=\"position: absolute; top:10vh; left:10vw; width: 35vw; height: 35vh; border-color: orange ></div>","<div class=\"slotmachine\" style=\"position: absolute; top:10vh; left:55vw; width: 35vw; height: 35vh; border-color: blue ></div>"],"bean_values":[0,1],"bean_time_after_response":2000,"bean_type":"jsPsychHtmlChoice","bean_bandits":[{"color":"orange","value":0},{"color":"blue","value":1}],"bean_value":1,"bean_score":40},{"rt":null,"stimulus":"<div style='color:white'>Score: 40</div>","response":null,"trial_type":"html-keyboard-response","trial_index":133,"time_elapsed":323266,"internal_node_id":"0.0-1.0-1.64","bean_trial_duration":1000,"bean_duration":1000,"bean_stimulus":"<div style='color:white'>Score: 40</div>","bean_choices":[],"bean_correct_key":"","bean_type":"jsPsychHtmlKeyboardResponse","bean_text":"Score: 40","bean_color":"white","bean_correct":false},{"rt":3550,"stimulus":["<div class=\"slotmachine\" style=\"position: absolute; top:10vh; left:10vw; width: 35vw; height: 35vh; border-color: orange;\"></div>","<div class=\"slotmachine\" style=\"position: absolute; top:10vh; left:55vw; width: 35vw; height: 35vh; border-color: blue;\"></div>"],"response":1,"value":1,"trial_type":"html-choice","trial_index":134,"time_elapsed":328825,"internal_node_id":"0.0-1.0-0.65","bean_trial_duration":null,"bean_duration":null,"bean_html_array":["<div class=\"slotmachine\" style=\"position: absolute; top:10vh; left:10vw; width: 35vw; height: 35vh; border-color: orange ></div>","<div class=\"slotmachine\" style=\"position: absolute; top:10vh; left:55vw; width: 35vw; height: 35vh; border-color: blue ></div>"],"bean_values":[1,1],"bean_time_after_response":2000,"bean_type":"jsPsychHtmlChoice","bean_bandits":[{"color":"orange","value":1},{"color":"blue","value":1}],"bean_value":1,"bean_score":41},{"rt":null,"stimulus":"<div style='color:white'>Score: 41</div>","response":null,"trial_type":"html-keyboard-response","trial_index":135,"time_elapsed":329831,"internal_node_id":"0.0-1.0-1.65","bean_trial_duration":1000,"bean_duration":1000,"bean_stimulus":"<div style='color:white'>Score: 41</div>","bean_choices":[],"bean_correct_key":"","bean_type":"jsPsychHtmlKeyboardResponse","bean_text":"Score: 41","bean_color":"white","bean_correct":false},{"rt":1988,"stimulus":["<div class=\"slotmachine\" style=\"position: absolute; top:10vh; left:10vw; width: 35vw; height: 35vh; border-color: orange;\"></div>","<div class=\"slotmachine\" style=\"position: absolute; top:10vh; left:55vw; width: 35vw; height: 35vh; border-color: blue;\"></div>"],"response":1,"value":1,"trial_type":"html-choice","trial_index":136,"time_elapsed":333831,"internal_node_id":"0.0-1.0-0.66","bean_trial_duration":null,"bean_duration":null,"bean_html_array":["<div class=\"slotmachine\" style=\"position: absolute; top:10vh; left:10vw; width: 35vw; height: 35vh; border-color: orange ></div>","<div class=\"slotmachine\" style=\"position: absolute; top:10vh; left:55vw; width: 35vw; height: 35vh; border-color: blue ></div>"],"bean_values":[0,1],"bean_time_after_response":2000,"bean_type":"jsPsychHtmlChoice","bean_bandits":[{"color":"orange","value":0},{"color":"blue","value":1}],"bean_value":1,"bean_score":42},{"rt":null,"stimulus":"<div style='color:white'>Score: 42</div>","response":null,"trial_type":"html-keyboard-response","trial_index":137,"time_elapsed":334844,"internal_node_id":"0.0-1.0-1.66","bean_trial_duration":1000,"bean_duration":1000,"bean_stimulus":"<div style='color:white'>Score: 42</div>","bean_choices":[],"bean_correct_key":"","bean_type":"jsPsychHtmlKeyboardResponse","bean_text":"Score: 42","bean_color":"white","bean_correct":false},{"rt":1084,"stimulus":["<div class=\"slotmachine\" style=\"position: absolute; top:10vh; left:10vw; width: 35vw; height: 35vh; border-color: orange;\"></div>","<div class=\"slotmachine\" style=\"position: absolute; top:10vh; left:55vw; width: 35vw; height: 35vh; border-color: blue;\"></div>"],"response":1,"value":0,"trial_type":"html-choice","trial_index":138,"time_elapsed":337929,"internal_node_id":"0.0-1.0-0.67","bean_trial_duration":null,"bean_duration":null,"bean_html_array":["<div class=\"slotmachine\" style=\"position: absolute; top:10vh; left:10vw; width: 35vw; height: 35vh; border-color: orange ></div>","<div class=\"slotmachine\" style=\"position: absolute; top:10vh; left:55vw; width: 35vw; height: 35vh; border-color: blue ></div>"],"bean_values":[0,0],"bean_time_after_response":2000,"bean_type":"jsPsychHtmlChoice","bean_bandits":[{"color":"orange","value":0},{"color":"blue","value":0}],"bean_value":0,"bean_score":42},{"rt":null,"stimulus":"<div style='color:white'>Score: 42</div>","response":null,"trial_type":"html-keyboard-response","trial_index":139,"time_elapsed":338942,"internal_node_id":"0.0-1.0-1.67","bean_trial_duration":1000,"bean_duration":1000,"bean_stimulus":"<div style='color:white'>Score: 42</div>","bean_choices":[],"bean_correct_key":"","bean_type":"jsPsychHtmlKeyboardResponse","bean_text":"Score: 42","bean_color":"white","bean_correct":false},{"rt":980,"stimulus":["<div class=\"slotmachine\" style=\"position: absolute; top:10vh; left:10vw; width: 35vw; height: 35vh; border-color: orange;\"></div>","<div class=\"slotmachine\" style=\"position: absolute; top:10vh; left:55vw; width: 35vw; height: 35vh; border-color: blue;\"></div>"],"response":1,"value":1,"trial_type":"html-choice","trial_index":140,"time_elapsed":341923,"internal_node_id":"0.0-1.0-0.68","bean_trial_duration":null,"bean_duration":null,"bean_html_array":["<div class=\"slotmachine\" style=\"position: absolute; top:10vh; left:10vw; width: 35vw; height: 35vh; border-color: orange ></div>","<div class=\"slotmachine\" style=\"position: absolute; top:10vh; left:55vw; width: 35vw; height: 35vh; border-color: blue ></div>"],"bean_values":[0,1],"bean_time_after_response":2000,"bean_type":"jsPsychHtmlChoice","bean_bandits":[{"color":"orange",