[{"rt":1550,"stimulus":"<div style='color:white'>Welcome to our decision-making experiment. In this experiment, you will make decisions between two options. \n Press the SPACE key to continue.</div>","response":" ","trial_type":"html-keyboard-response","trial_index":0,"time_elapsed":1551,"internal_node_id":"0.0-0.0-0.0","bean_trial_duration":null,"bean_duration":null,"bean_stimulus":"<div style='color:white'>Welcome to our decision-making experiment. In this experiment, you will make decisions between two options.\nPress the SPACE key to continue.</div>","bean_choices":[" "],"bean_correct_key":"","bean_type":"jsPsychHtmlKeyboardResponse","bean_text":"Welcome to our decision-making experiment. In this experiment, you will make decisions between two options.     \n Press the SPACE key to continue.","bean_color":"white","bean_correct":false},{"rt":2361,"stimulus":"<div style='color:white'>\n    <div class=\"slotmachine\" style=\"position: absolute; top:1vh; left:0 vw; width: 30vw; height: 35vh; border-color:orange\n        \">\n        </div>\n        <div class=\"slotmachine\" style=\"position: absolute; top:1vh; right:0 vw; left:40vw; width: 30vw; height: 35vh; border-color:blue\n        \">\n        </div>\n    In each trial, you will see two slot machines (bandits) on the screen. <b> Click on a bandit </b> to make your choice.    Press SPACE to continue.</div>","response":" ","trial_type":"html-keyboard-response","trial_index":1,"time_elapsed":3914,"internal_node_id":"0.0-0.0-1.0","bean_trial_duration":null,"bean_duration":null,"bean_stimulus":"<div style='color:white'>\"\n    <div class=\"slotmachine\" style=\"position: absolute; top:1vh; left:0 vw; width: 30vw; height: 35vh; border-color:orange\n        \">\n        </div>\n        <div class=\"slotmachine\" style=\"position: absolute; top:1vh; right:0 vw; left:40vw; width: 30vw; height: 35vh; border-color:blue\n        \">\n        </div>\n    \"In each trial, you will see two slot machines (bandits) on the screen. <b> Click on a bandit </b> to make your choice.    Press SPACE to continue.</div>","bean_choices":[" "],"bean_correct_key":"","bean_type":"jsPsychHtmlKeyboardResponse","bean_text":"\"\n    <div class=\"slotmachine\" style=\"position: absolute; top:1vh; left:0 vw; width: 30vw; height: 35vh; border-color:orange\n        \">\n        </div>\n        <div class=\"slotmachine\" style=\"position: absolute; top:1vh; right:0 vw; left:40vw; width: 30vw; height: 35vh; border-color:blue\n        \">\n        </div>\n    \"In each trial, you will see two slot machines (bandits) on the screen. <b> Click on a bandit </b> to make your choice    Press SPACE to continue.","bean_color":"white","bean_correct":false},{"rt":707,"stimulus":"<div style='color:white'>After selecting a bandit, you will receive feedback showing whether you won reward (1 point) or not (0 point). One bandit tends to give rewards more often than the other. However, this may change during the experiment.</div>","response":" ","trial_type":"html-keyboard-response","trial_index":2,"time_elapsed":4622,"internal_node_id":"0.0-0.0-2.0","bean_trial_duration":null,"bean_duration":null,"bean_stimulus":"<div style='color:white'>After selecting a bandit, you will receive feedback showing whether you won reward (1 point) or not (0 point). One bandit tends to give rewards more often than the other. However, this may change during the experiment.</div>","bean_choices":[" "],"bean_correct_key":"","bean_type":"jsPsychHtmlKeyboardResponse","bean_text":"After selecting a bandit, you will receive feedback showing whether you won reward (1 point) or not (0 point). One bandit tends to give rewards more often than the other. However, this may change during the experiment.","bean_color":"white","bean_correct":false},{"rt":480,"stimulus":"<div style='color:white'>Your goal is to earn as many points as possible. Pay attention to feedback, as the probabilities of winning for each bandit may change over time.     You are now ready to begin. Good luck! Press Q to start the task.</div>","response":" ","trial_type":"html-keyboard-response","trial_index":3,"time_elapsed":5103,"internal_node_id":"0.0-0.0-3.0","bean_trial_duration":null,"bean_duration":null,"bean_stimulus":"<div style='color:white'>Your goal is to earn as many points as possible. Pay attention to feedback, as the probabilities of winning for each bandit may change over time.     You are now ready to begin. Good luck! Press Q to start the task.</div>","bean_choices":["q"," "],"bean_correct_key":"","bean_type":"jsPsychHtmlKeyboardResponse","bean_text":"Your goal is to earn as many points as possible. Pay attention to feedback, as the probabilities of winning for each bandit may change over time.     You are now ready to begin. Good luck! Press Q to start the task.","bean_color":"white","bean_correct":false},{"rt":999,"stimulus":["<div class=\"slotmachine\" style=\"position: absolute; top:10vh; left:10vw; width: 35vw; height: 35vh; border-color: orange;\"></div>","<div class=\"slotmachine\" style=\"position: absolute; top:10vh; left:55vw; width: 35vw; height: 35vh; border-color: blue;\"></div>"],"response":0,"value":0,"trial_type":"html-choice","trial_index":4,"time_elapsed":8106,"internal_node_id":"0.0-1.0-0.0","bean_trial_duration":null,"bean_duration":null,"bean_html_array":["<div class=\"slotmachine\" style=\"position: absolute; top:10vh; left:10vw; width: 35vw; height: 35vh; border-color: orange ></div>","<div class=\"slotmachine\" style=\"position: absolute; top:10vh; left:55vw; width: 35vw; height: 35vh; border-color: blue ></div>"],"bean_values":[0,1],"bean_time_after_response":2000,"bean_type":"jsPsychHtmlChoice","bean_bandits":[{"color":"orange","value":0},{"color":"blue","value":1}],"bean_value":0,"bean_score":0},{"rt":null,"stimulus":"<div style='color:white'>Score: 0</div>","response":null,"trial_type":"html-keyboard-response","trial_index":5,"time_elapsed":9111,"internal_node_id":"0.0-1.0-1.0","bean_trial_duration":1000,"bean_duration":1000,"bean_stimulus":"<div style='color:white'>Score: 0</div>","bean_choices":[],"bean_correct_key":"","bean_type":"jsPsychHtmlKeyboardResponse","bean_text":"Score: 0","bean_color":"white","bean_correct":false},{"rt":510,"stimulus":["<div class=\"slotmachine\" style=\"position: absolute; top:10vh; left:10vw; width: 35vw; height: 35vh; border-color: orange;\"></div>","<div class=\"slotmachine\" style=\"position: absolute; top:10vh; left:55vw; width: 35vw; height: 35vh; border-color: blue;\"></div>"],"response":1,"value":1,"trial_type":"html-choice","trial_index":6,"time_elapsed":11623,"internal_node_id":"0.0-1.0-0.1","bean_trial_duration":null,"bean_duration":null,"bean_html_array":["<div class=\"slotmachine\" style=\"position: absolute; top:10vh; left:10vw; width: 35vw; height: 35vh; border-color: orange ></div>","<div class=\"slotmachine\" style=\"position: absolute; top:10vh; left:55vw; width: 35vw; height: 35vh; border-color: blue ></div>"],"bean_values":[1,1],"bean_time_after_response":2000,"bean_type":"jsPsychHtmlChoice","bean_bandits":[{"color":"orange","value":1},{"color":"blue","value":1}],"bean_value":1,"bean_score":1},{"rt":null,"stimulus":"<div style='color:white'>Score: 1</div>","response":null,"trial_type":"html-keyboard-response","trial_index":7,"time_elapsed":12626,"internal_node_id":"0.0-1.0-1.1","bean_trial_duration":1000,"bean_duration":1000,"bean_stimulus":"<div style='color:white'>Score: 1</div>","bean_choices":[],"bean_correct_key":"","bean_type":"jsPsychHtmlKeyboardResponse","bean_text":"Score: 1","bean_color":"white","bean_correct":false},{"rt":556,"stimulus":["<div class=\"slotmachine\" style=\"position: absolute; top:10vh; left:10vw; width: 35vw; height: 35vh; border-color: orange;\"></div>","<div class=\"slotmachine\" style=\"position: absolute; top:10vh; left:55vw; width: 35vw; height: 35vh; border-color: blue;\"></div>"],"response":1,"value":1,"trial_type":"html-choice","trial_index":8,"time_elapsed":15183,"internal_node_id":"0.0-1.0-0.2","bean_trial_duration":null,"bean_duration":null,"bean_html_array":["<div class=\"slotmachine\" style=\"position: absolute; top:10vh; left:10vw; width: 35vw; height: 35vh; border-color: orange ></div>","<div class=\"slotmachine\" style=\"position: absolute; top:10vh; left:55vw; width: 35vw; height: 35vh; border-color: blue ></div>"],"bean_values":[0,1],"bean_time_after_response":2000,"bean_type":"jsPsychHtmlChoice","bean_bandits":[{"color":"orange","value":0},{"color":"blue","value":1}],"bean_value":1,"bean_score":2},{"rt":null,"stimulus":"<div style='color:white'>Score: 2</div>","response":null,"trial_type":"html-keyboard-response","trial_index":9,"time_elapsed":16185,"internal_node_id":"0.0-1.0-1.2","bean_trial_duration":1000,"bean_duration":1000,"bean_stimulus":"<div style='color:white'>Score: 2</div>","bean_choices":[],"bean_correct_key":"","bean_type":"jsPsychHtmlKeyboardResponse","bean_text":"Score: 2","bean_color":"white","bean_correct":false},{"rt":329,"stimulus":["<div class=\"slotmachine\" style=\"position: absolute; top:10vh; left:10vw; width: 35vw; height: 35vh; border-color: orange;\"></div>","<div class=\"slotmachine\" style=\"position: absolute; top:10vh; left:55vw; width: 35vw; height: 35vh; border-color: blue;\"></div>"],"response":1,"value":0,"trial_type":"html-choice","trial_index":10,"time_elapsed":18517,"internal_node_id":"0.0-1.0-0.3","bean_trial_duration":null,"bean_duration":null,"bean_html_array":["<div class=\"slotmachine\" style=\"position: absolute; top:10vh; left:10vw; width: 35vw; height: 35vh; border-color: orange ></div>","<div class=\"slotmachine\" style=\"position: absolute; top:10vh; left:55vw; width: 35vw; height: 35vh; border-color: blue ></div>"],"bean_values":[0,0],"bean_time_after_response":2000,"bean_type":"jsPsychHtmlChoice","bean_bandits":[{"color":"orange","value":0},{"color":"blue","value":0}],"bean_value":0,"bean_score":2},{"rt":null,"stimulus":"<div style='color:white'>Score: 2</div>","response":null,"trial_type":"html-keyboard-response","trial_index":11,"time_elapsed":19520,"internal_node_id":"0.0-1.0-1.3","bean_trial_duration":1000,"bean_duration":1000,"bean_stimulus":"<div style='color:white'>Score: 2</div>","bean_choices":[],"bean_correct_key":"","bean_type":"jsPsychHtmlKeyboardResponse","bean_text":"Score: 2","bean_color":"white","bean_correct":false},{"rt":279,"stimulus":["<div class=\"slotmachine\" style=\"position: absolute; top:10vh; left:10vw; width: 35vw; height: 35vh; border-color: orange;\"></div>","<div class=\"slotmachine\" style=\"position: absolute; top:10vh; left:55vw; width: 35vw; height: 35vh; border-color: blue;\"></div>"],"response":1,"value":0,"trial_type":"html-choice","trial_index":12,"time_elapsed":21802,"internal_node_id":"0.0-1.0-0.4","bean_trial_duration":null,"bean_duration":null,"bean_html_array":["<div class=\"slotmachine\" style=\"position: absolute; top:10vh; left:10vw; width: 35vw; height: 35vh; border-color: orange ></div>","<div class=\"slotmachine\" style=\"position: absolute; top:10vh; left:55vw; width: 35vw; height: 35vh; border-color: blue ></div>"],"bean_values":[0,0],"bean_time_after_response":2000,"bean_type":"jsPsychHtmlChoice","bean_bandits":[{"color":"orange","value":0},{"color":"blue","value":0}],"bean_value":0,"bean_score":2},{"rt":null,"stimulus":"<div style='color:white'>Score: 2</div>","response":null,"trial_type":"html-keyboard-response","trial_index":13,"time_elapsed":22803,"internal_node_id":"0.0-1.0-1.4","bean_trial_duration":1000,"bean_duration":1000,"bean_stimulus":"<div style='color:white'>Score: 2</div>","bean_choices":[],"bean_correct_key":"","bean_type":"jsPsychHtmlKeyboardResponse","bean_text":"Score: 2","bean_color":"white","bean_correct":false},{"rt":304,"stimulus":["<div class=\"slotmachine\" style=\"position: absolute; top:10vh; left:10vw; width: 35vw; height: 35vh; border-color: orange;\"></div>","<div class=\"slotmachine\" style=\"position: absolute; top:10vh; left:55vw; width: 35vw; height: 35vh; border-color: blue;\"></div>"],"response":0,"value":1,"trial_type":"html-choice","trial_index":14,"time_elapsed":25110,"internal_node_id":"0.0-1.0-0.5","bean_trial_duration":null,"bean_duration":null,"bean_html_array":["<div class=\"slotmachine\" style=\"position: absolute; top:10vh; left:10vw; width: 35vw; height: 35vh; border-color: orange ></div>","<div class=\"slotmachine\" style=\"position: absolute; top:10vh; left:55vw; width: 35vw; height: 35vh; border-color: blue ></div>"],"bean_values":[1,0],"bean_time_after_response":2000,"bean_type":"jsPsychHtmlChoice","bean_bandits":[{"color":"orange","value":1},{"color":"blue","value":0}],"bean_value":1,"bean_score":3},{"rt":null,"stimulus":"<div style='color:white'>Score: 3</div>","response":null,"trial_type":"html-keyboard-response","trial_index":15,"time_elapsed":26113,"internal_node_id":"0.0-1.0-1.5","bean_trial_duration":1000,"bean_duration":1000,"bean_stimulus":"<div style='color:white'>Score: 3</div>","bean_choices":[],"bean_correct_key":"","bean_type":"jsPsychHtmlKeyboardResponse","bean_text":"Score: 3","bean_color":"white","bean_correct":false},{"rt":254,"stimulus":["<div class=\"slotmachine\" style=\"position: absolute; top:10vh; left:10vw; width: 35vw; height: 35vh; border-color: orange;\"></div>","<div class=\"slotmachine\" style=\"position: absolute; top:10vh; left:55vw; width: 35vw; height: 35vh; border-color: blue;\"></div>"],"response":0,"value":1,"trial_type":"html-choice","trial_index":16,"time_elapsed":28370,"internal_node_id":"0.0-1.0-0.6","bean_trial_duration":null,"bean_duration":null,"bean_html_array":["<div class=\"slotmachine\" style=\"position: absolute; top:10vh; left:10vw; width: 35vw; height: 35vh; border-color: orange ></div>","<div class=\"slotmachine\" style=\"position: absolute; top:10vh; left:55vw; width: 35vw; height: 35vh; border-color: blue ></div>"],"bean_values":[1,0],"bean_time_after_response":2000,"bean_type":"jsPsychHtmlChoice","bean_bandits":[{"color":"orange","value":1},{"color":"blue","value":0}],"bean_value":1,"bean_score":4},{"rt":null,"stimulus":"<div style='color:white'>Score: 4</div>","response":null,"trial_type":"html-keyboard-response","trial_index":17,"time_elapsed":29371,"internal_node_id":"0.0-1.0-1.6","bean_trial_duration":1000,"bean_duration":1000,"bean_stimulus":"<div style='color:white'>Score: 4</div>","bean_choices":[],"bean_correct_key":"","bean_type":"jsPsychHtmlKeyboardResponse","bean_text":"Score: 4","bean_color":"white","bean_correct":false},{"rt":358,"stimulus":["<div class=\"slotmachine\" style=\"position: absolute; top:10vh; left:10vw; width: 35vw; height: 35vh; border-color: orange;\"></div>","<div class=\"slotmachine\" style=\"position: absolute; top:10vh; left:55vw; width: 35vw; height: 35vh; border-color: blue;\"></div>"],"response":1,"value":0,"trial_type":"html-choice","trial_index":18,"time_elapsed":31731,"internal_node_id":"0.0-1.0-0.7","bean_trial_duration":null,"bean_duration":null,"bean_html_array":["<div class=\"slotmachine\" style=\"position: absolute; top:10vh; left:10vw; width: 35vw; height: 35vh; border-color: orange ></div>","<div class=\"slotmachine\" style=\"position: absolute; top:10vh; left:55vw; width: 35vw; height: 35vh; border-color: blue ></div>"],"bean_values":[1,0],"bean_time_after_response":2000,"bean_type":"jsPsychHtmlChoice","bean_bandits":[{"color":"orange","value":1},{"color":"blue","value":0}],"bean_value":0,"bean_score":4},{"rt":null,"stimulus":"<div style='color:white'>Score: 4</div>","response":null,"trial_type":"html-keyboard-response","trial_index":19,"time_elapsed":32734,"internal_node_id":"0.0-1.0-1.7","bean_trial_duration":1000,"bean_duration":1000,"bean_stimulus":"<div style='color:white'>Score: 4</div>","bean_choices":[],"bean_correct_key":"","bean_type":"jsPsychHtmlKeyboardResponse","bean_text":"Score: 4","bean_color":"white","bean_correct":false},{"rt":184,"stimulus":["<div class=\"slotmachine\" style=\"position: absolute; top:10vh; left:10vw; width: 35vw; height: 35vh; border-color: orange;\"></div>","<div class=\"slotmachine\" style=\"position: absolute; top:10vh; left:55vw; width: 35vw; height: 35vh; border-color: blue;\"></div>"],"response":0,"value":0,"trial_type":"html-choice","trial_index":20,"time_elapsed":34920,"internal_node_id":"0.0-1.0-0.8","bean_trial_duration":null,"bean_duration":null,"bean_html_array":["<div class=\"slotmachine\" style=\"position: absolute; top:10vh; left:10vw; width: 35vw; height: 35vh; border-color: orange ></div>","<div class=\"slotmachine\" style=\"position: absolute; top:10vh; left:55vw; width: 35vw; height: 35vh; border-color: blue ></div>"],"bean_values":[0,0],"bean_time_after_response":2000,"bean_type":"jsPsychHtmlChoice","bean_bandits":[{"color":"orange","value":0},{"color":"blue","value":0}],"bean_value":0,"bean_score":4},{"rt":null,"stimulus":"<div style='color:white'>Score: 4</div>","response":null,"trial_type":"html-keyboard-response","trial_index":21,"time_elapsed":35923,"internal_node_id":"0.0-1.0-1.8","bean_trial_duration":1000,"bean_duration":1000,"bean_stimulus":"<div style='color:white'>Score: 4</div>","bean_choices":[],"bean_correct_key":"","bean_type":"jsPsychHtmlKeyboardResponse","bean_text":"Score: 4","bean_color":"white","bean_correct":false},{"rt":398,"stimulus":["<div class=\"slotmachine\" style=\"position: absolute; top:10vh; left:10vw; width: 35vw; height: 35vh; border-color: orange;\"></div>","<div class=\"slotmachine\" style=\"position: absolute; top:10vh; left:55vw; width: 35vw; height: 35vh; border-color: blue;\"></div>"],"response":0,"value":1,"trial_type":"html-choice","trial_index":22,"time_elapsed":38323,"internal_node_id":"0.0-1.0-0.9","bean_trial_duration":null,"bean_duration":null,"bean_html_array":["<div class=\"slotmachine\" style=\"position: absolute; top:10vh; left:10vw; width: 35vw; height: 35vh; border-color: orange ></div>","<div class=\"slotmachine\" style=\"position: absolute; top:10vh; left:55vw; width: 35vw; height: 35vh; border-color: blue ></div>"],"bean_values":[1,0],"bean_time_after_response":2000,"bean_type":"jsPsychHtmlChoice","bean_bandits":[{"color":"orange","value":1},{"color":"blue","value":0}],"bean_value":1,"bean_score":5},{"rt":null,"stimulus":"<div style='color:white'>Score: 5</div>","response":null,"trial_type":"html-keyboard-response","trial_index":23,"time_elapsed":39325,"internal_node_id":"0.0-1.0-1.9","bean_trial_duration":1000,"bean_duration":1000,"bean_stimulus":"<div style='color:white'>Score: 5</div>","bean_choices":[],"bean_correct_key":"","bean_type":"jsPsychHtmlKeyboardResponse","bean_text":"Score: 5","bean_color":"white","bean_correct":false},{"rt":541,"stimulus":["<div class=\"slotmachine\" style=\"position: absolute; top:10vh; left:10vw; width: 35vw; height: 35vh; border-color: orange;\"></div>","<div class=\"slotmachine\" style=\"position: absolute; top:10vh; left:55vw; width: 35vw; height: 35vh; border-color: blue;\"></div>"],"response":1,"value":0,"trial_type":"html-choice","trial_index":24,"time_elapsed":41868,"internal_node_id":"0.0-1.0-0.10","bean_trial_duration":null,"bean_duration":null,"bean_html_array":["<div class=\"slotmachine\" style=\"position: absolute; top:10vh; left:10vw; width: 35vw; height: 35vh; border-color: orange ></div>","<div class=\"slotmachine\" style=\"position: absolute; top:10vh; left:55vw; width: 35vw; height: 35vh; border-color: blue ></div>"],"bean_values":[0,0],"bean_time_after_response":2000,"bean_type":"jsPsychHtmlChoice","bean_bandits":[{"color":"orange","value":0},{"color":"blue","value":0}],"bean_value":0,"bean_score":5},{"rt":null,"stimulus":"<div style='color:white'>Score: 5</div>","response":null,"trial_type":"html-keyboard-response","trial_index":25,"time_elapsed":42870,"internal_node_id":"0.0-1.0-1.10","bean_trial_duration":1000,"bean_duration":1000,"bean_stimulus":"<div style='color:white'>Score: 5</div>","bean_choices":[],"bean_correct_key":"","bean_type":"jsPsychHtmlKeyboardResponse","bean_text":"Score: 5","bean_color":"white","bean_correct":false},{"rt":382,"stimulus":["<div class=\"slotmachine\" style=\"position: absolute; top:10vh; left:10vw; width: 35vw; height: 35vh; border-color: orange;\"></div>","<div class=\"slotmachine\" style=\"position: absolute; top:10vh; left:55vw; width: 35vw; height: 35vh; border-color: blue;\"></div>"],"response":0,"value":1,"trial_type":"html-choice","trial_index":26,"time_elapsed":45256,"internal_node_id":"0.0-1.0-0.11","bean_trial_duration":null,"bean_duration":null,"bean_html_array":["<div class=\"slotmachine\" style=\"position: absolute; top:10vh; left:10vw; width: 35vw; height: 35vh; border-color: orange ></div>","<div class=\"slotmachine\" style=\"position: absolute; top:10vh; left:55vw; width: 35vw; height: 35vh; border-color: blue ></div>"],"bean_values":[1,0],"bean_time_after_response":2000,"bean_type":"jsPsychHtmlChoice","bean_bandits":[{"color":"orange","value":1},{"color":"blue","value":0}],"bean_value":1,"bean_score":6},{"rt":null,"stimulus":"<div style='color:white'>Score: 6</div>","response":null,"trial_type":"html-keyboard-response","trial_index":27,"time_elapsed":46258,"internal_node_id":"0.0-1.0-1.11","bean_trial_duration":1000,"bean_duration":1000,"bean_stimulus":"<div style='color:white'>Score: 6</div>","bean_choices":[],"bean_correct_key":"","bean_type":"jsPsychHtmlKeyboardResponse","bean_text":"Score: 6","bean_color":"white","bean_correct":false},{"rt":417,"stimulus":["<div class=\"slotmachine\" style=\"position: absolute; top:10vh; left:10vw; width: 35vw; height: 35vh; border-color: orange;\"></div>","<div class=\"slotmachine\" style=\"position: absolute; top:10vh; left:55vw; width: 35vw; height: 35vh; border-color: blue;\"></div>"],"response":0,"value":1,"trial_type":"html-choice","trial_index":28,"time_elapsed":48679,"internal_node_id":"0.0-1.0-0.12","bean_trial_duration":null,"bean_duration":null,"bean_html_array":["<div class=\"slotmachine\" style=\"position: absolute; top:10vh; left:10vw; width: 35vw; height: 35vh; border-color: orange ></div>","<div class=\"slotmachine\" style=\"position: absolute; top:10vh; left:55vw; width: 35vw; height: 35vh; border-color: blue ></div>"],"bean_values":[1,1],"bean_time_after_response":2000,"bean_type":"jsPsychHtmlChoice","bean_bandits":[{"color":"orange","value":1},{"color":"blue","value":1}],"bean_value":1,"bean_score":7},{"rt":null,"stimulus":"<div style='color:white'>Score: 7</div>","response":null,"trial_type":"html-keyboard-response","trial_index":29,"time_elapsed":49681,"internal_node_id":"0.0-1.0-1.12","bean_trial_duration":1000,"bean_duration":1000,"bean_stimulus":"<div style='color:white'>Score: 7</div>","bean_choices":[],"bean_correct_key":"","bean_type":"jsPsychHtmlKeyboardResponse","bean_text":"Score: 7","bean_color":"white","bean_correct":false},{"rt":581,"stimulus":["<div class=\"slotmachine\" style=\"position: absolute; top:10vh; left:10vw; width: 35vw; height: 35vh; border-color: orange;\"></div>","<div class=\"slotmachine\" style=\"position: absolute; top:10vh; left:55vw; width: 35vw; height: 35vh; border-color: blue;\"></div>"],"response":0,"value":1,"trial_type":"html-choice","trial_index":30,"time_elapsed":52264,"internal_node_id":"0.0-1.0-0.13","bean_trial_duration":null,"bean_duration":null,"bean_html_array":["<div class=\"slotmachine\" style=\"position: absolute; top:10vh; left:10vw; width: 35vw; height: 35vh; border-color: orange ></div>","<div class=\"slotmachine\" style=\"position: absolute; top:10vh; left:55vw; width: 35vw; height: 35vh; border-color: blue ></div>"],"bean_values":[1,0],"bean_time_after_response":2000,"bean_type":"jsPsychHtmlChoice","bean_bandits":[{"color":"orange","value":1},{"color":"blue","value":0}],"bean_value":1,"bean_score":8},{"rt":null,"stimulus":"<div style='color:white'>Score: 8</div>","response":null,"trial_type":"html-keyboard-response","trial_index":31,"time_elapsed":53266,"internal_node_id":"0.0-1.0-1.13","bean_trial_duration":1000,"bean_duration":1000,"bean_stimulus":"<div style='color:white'>Score: 8</div>","bean_choices":[],"bean_correct_key":"","bean_type":"jsPsychHtmlKeyboardResponse","bean_text":"Score: 8","bean_color":"white","bean_correct":false},{"rt":483,"stimulus":["<div class=\"slotmachine\" style=\"position: absolute; top:10vh; left:10vw; width: 35vw; height: 35vh; border-color: orange;\"></div>","<div class=\"slotmachine\" style=\"position: absolute; top:10vh; left:55vw; width: 35vw; height: 35vh; border-color: blue;\"></div>"],"response":0,"value":1,"trial_type":"html-choice","trial_index":32,"time_elapsed":55751,"internal_node_id":"0.0-1.0-0.14","bean_trial_duration":null,"bean_duration":null,"bean_html_array":["<div class=\"slotmachine\" style=\"position: absolute; top:10vh; left:10vw; width: 35vw; height: 35vh; border-color: orange ></div>","<div class=\"slotmachine\" style=\"position: absolute; top:10vh; left:55vw; width: 35vw; height: 35vh; border-color: blue ></div>"],"bean_values":[1,0],"bean_time_after_response":2000,"bean_type":"jsPsychHtmlChoice","bean_bandits":[{"color":"orange","value":1},{"color":"blue","value":0}],"bean_value":1,"bean_score":9},{"rt":null,"stimulus":"<div style='color:white'>Score: 9</div>","response":null,"trial_type":"html-keyboard-response","trial_index":33,"time_elapsed":56753,"internal_node_id":"0.0-1.0-1.14","bean_trial_duration":1000,"bean_duration":1000,"bean_stimulus":"<div style='color:white'>Score: 9</div>","bean_choices":[],"bean_correct_key":"","bean_type":"jsPsychHtmlKeyboardResponse","bean_text":"Score: 9","bean_color":"white","bean_correct":false},{"rt":317,"stimulus":["<div class=\"slotmachine\" style=\"position: absolute; top:10vh; left:10vw; width: 35vw; height: 35vh; border-color: orange;\"></div>","<div class=\"slotmachine\" style=\"position: absolute; top:10vh; left:55vw; width: 35vw; height: 35vh; border-color: blue;\"></div>"],"response":0,"value":1,"trial_type":"html-choice","trial_index":34,"time_elapsed":59074,"internal_node_id":"0.0-1.0-0.15","bean_trial_duration":null,"bean_duration":null,"bean_html_array":["<div class=\"slotmachine\" style=\"position: absolute; top:10vh; left:10vw; width: 35vw; height: 35vh; border-color: orange ></div>","<div class=\"slotmachine\" style=\"position: absolute; top:10vh; left:55vw; width: 35vw; height: 35vh; border-color: blue ></div>"],"bean_values":[1,0],"bean_time_after_response":2000,"bean_type":"jsPsychHtmlChoice","bean_bandits":[{"color":"orange","value":1},{"color":"blue","value":0}],"bean_value":1,"bean_score":10},{"rt":null,"stimulus":"<div style='color:white'>Score: 10</div>","response":null,"trial_type":"html-keyboard-response","trial_index":35,"time_elapsed":60076,"internal_node_id":"0.0-1.0-1.15","bean_trial_duration":1000,"bean_duration":1000,"bean_stimulus":"<div style='color:white'>Score: 10</div>","bean_choices":[],"bean_correct_key":"","bean_type":"jsPsychHtmlKeyboardResponse","bean_text":"Score: 10","bean_color":"white","bean_correct":false},{"rt":398,"stimulus":["<div class=\"slotmachine\" style=\"position: absolute; top:10vh; left:10vw; width: 35vw; height: 35vh; border-color: orange;\"></div>","<div class=\"slotmachine\" style=\"position: absolute; top:10vh; left:55vw; width: 35vw; height: 35vh; border-color: blue;\"></div>"],"response":0,"value":0,"trial_type":"html-choice","trial_index":36,"time_elapsed":62476,"internal_node_id":"0.0-1.0-0.16","bean_trial_duration":null,"bean_duration":null,"bean_html_array":["<div class=\"slotmachine\" style=\"position: absolute; top:10vh; left:10vw; width: 35vw; height: 35vh; border-color: orange ></div>","<div class=\"slotmachine\" style=\"position: absolute; top:10vh; left:55vw; width: 35vw; height: 35vh; border-color: blue ></div>"],"bean_values":[0,0],"bean_time_after_response":2000,"bean_type":"jsPsychHtmlChoice","bean_bandits":[{"color":"orange","value":0},{"color":"blue","value":0}],"bean_value":0,"bean_score":10},{"rt":null,"stimulus":"<div style='color:white'>Score: 10</div>","response":null,"trial_type":"html-keyboard-response","trial_index":37,"time_elapsed":63479,"internal_node_id":"0.0-1.0-1.16","bean_trial_duration":1000,"bean_duration":1000,"bean_stimulus":"<div style='color:white'>Score: 10</div>","bean_choices":[],"bean_correct_key":"","bean_type":"jsPsychHtmlKeyboardResponse","bean_text":"Score: 10","bean_color":"white","bean_correct":false},{"rt":263,"stimulus":["<div class=\"slotmachine\" style=\"position: absolute; top:10vh; left:10vw; width: 35vw; height: 35vh; border-color: orange;\"></div>","<div class=\"slotmachine\" style=\"position: absolute; top:10vh; left:55vw; width: 35vw; height: 35vh; border-color: blue;\"></div>"],"response":0,"value":1,"trial_type":"html-choice","trial_index":38,"time_elapsed":65744,"internal_node_id":"0.0-1.0-0.17","bean_trial_duration":null,"bean_duration":null,"bean_html_array":["<div class=\"slotmachine\" style=\"position: absolute; top:10vh; left:10vw; width: 35vw; height: 35vh; border-color: orange ></div>","<div class=\"slotmachine\" style=\"position: absolute; top:10vh; left:55vw; width: 35vw; height: 35vh; border-color: blue ></div>"],"bean_values":[1,0],"bean_time_after_response":2000,"bean_type":"jsPsychHtmlChoice","bean_bandits":[{"color":"orange","value":1},{"color":"blue","value":0}],"bean_value":1,"bean_score":11},{"rt":null,"stimulus":"<div style='color:white'>Score: 11</div>","response":null,"trial_type":"html-keyboard-response","trial_index":39,"time_elapsed":66747,"internal_node_id":"0.0-1.0-1.17","bean_trial_duration":1000,"bean_duration":1000,"bean_stimulus":"<div style='color:white'>Score: 11</div>","bean_choices":[],"bean_correct_key":"","bean_type":"jsPsychHtmlKeyboardResponse","bean_text":"Score: 11","bean_color":"white","bean_correct":false},{"rt":294,"stimulus":["<div class=\"slotmachine\" style=\"position: absolute; top:10vh; left:10vw; width: 35vw; height: 35vh; border-color: orange;\"></div>","<div class=\"slotmachine\" style=\"position: absolute; top:10vh; left:55vw; width: 35vw; height: 35vh; border-color: blue;\"></div>"],"response":1,"value":1,"trial_type":"html-choice","trial_index":40,"time_elapsed":69044,"internal_node_id":"0.0-1.0-0.18","bean_trial_duration":null,"bean_duration":null,"bean_html_array":["<div class=\"slotmachine\" style=\"position: absolute; top:10vh; left:10vw; width: 35vw; height: 35vh; border-color: orange ></div>","<div class=\"slotmachine\" style=\"position: absolute; top:10vh; left:55vw; width: 35vw; height: 35vh; border-color: blue ></div>"],"bean_values":[1,1],"bean_time_after_response":2000,"bean_type":"jsPsychHtmlChoice","bean_bandits":[{"color":"orange","value":1},{"color":"blue","value":1}],"bean_value":1,"bean_score":12},{"rt":null,"stimulus":"<div style='color:white'>Score: 12</div>","response":null,"trial_type":"html-keyboard-response","trial_index":41,"time_elapsed":70046,"internal_node_id":"0.0-1.0-1.18","bean_trial_duration":1000,"bean_duration":1000,"bean_stimulus":"<div style='color:white'>Score: 12</div>","bean_choices":[],"bean_correct_key":"","bean_type":"jsPsychHtmlKeyboardResponse","bean_text":"Score: 12","bean_color":"white","bean_correct":false},{"rt":299,"stimulus":["<div class=\"slotmachine\" style=\"position: absolute; top:10vh; left:10vw; width: 35vw; height: 35vh; border-color: orange;\"></div>","<div class=\"slotmachine\" style=\"position: absolute; top:10vh; left:55vw; width: 35vw; height: 35vh; border-color: blue;\"></div>"],"response":1,"value":0,"trial_type":"html-choice","trial_index":42,"time_elapsed":72348,"internal_node_id":"0.0-1.0-0.19","bean_trial_duration":null,"bean_duration":null,"bean_html_array":["<div class=\"slotmachine\" style=\"position: absolute; top:10vh; left:10vw; width: 35vw; height: 35vh; border-color: orange ></div>","<div class=\"slotmachine\" style=\"position: absolute; top:10vh; left:55vw; width: 35vw; height: 35vh; border-color: blue ></div>"],"bean_values":[1,0],"bean_time_after_response":2000,"bean_type":"jsPsychHtmlChoice","bean_bandits":[{"color":"orange","value":1},{"color":"blue","value":0}],"bean_value":0,"bean_score":12},{"rt":null,"stimulus":"<div style='color:white'>Score: 12</div>","response":null,"trial_type":"html-keyboard-response","trial_index":43,"time_elapsed":73350,"internal_node_id":"0.0-1.0-1.19","bean_trial_duration":1000,"bean_duration":1000,"bean_stimulus":"<div style='color:white'>Score: 12</div>","bean_choices":[],"bean_correct_key":"","bean_type":"jsPsychHtmlKeyboardResponse","bean_text":"Score: 12","bean_color":"white","bean_correct":false},{"rt":278,"stimulus":["<div class=\"slotmachine\" style=\"position: absolute; top:10vh; left:10vw; width: 35vw; height: 35vh; border-color: orange;\"></div>","<div class=\"slotmachine\" style=\"position: absolute; top:10vh; left:55vw; width: 35vw; height: 35vh; border-color: blue;\"></div>"],"response":0,"value":1,"trial_type":"html-choice","trial_index":44,"time_elapsed":75631,"internal_node_id":"0.0-1.0-0.20","bean_trial_duration":null,"bean_duration":null,"bean_html_array":["<div class=\"slotmachine\" style=\"position: absolute; top:10vh; left:10vw; width: 35vw; height: 35vh; border-color: orange ></div>","<div class=\"slotmachine\" style=\"position: absolute; top:10vh; left:55vw; width: 35vw; height: 35vh; border-color: blue ></div>"],"bean_values":[1,0],"bean_time_after_response":2000,"bean_type":"jsPsychHtmlChoice","bean_bandits":[{"color":"orange","value":1},{"color":"blue","value":0}],"bean_value":1,"bean_score":13},{"rt":null,"stimulus":"<div style='color:white'>Score: 13</div>","response":null,"trial_type":"html-keyboard-response","trial_index":45,"time_elapsed":76633,"internal_node_id":"0.0-1.0-1.20","bean_trial_duration":1000,"bean_duration":1000,"bean_stimulus":"<div style='color:white'>Score: 13</div>","bean_choices":[],"bean_correct_key":"","bean_type":"jsPsychHtmlKeyboardResponse","bean_text":"Score: 13","bean_color":"white","bean_correct":false},{"rt":683,"stimulus":["<div class=\"slotmachine\" style=\"position: absolute; top:10vh; left:10vw; width: 35vw; height: 35vh; border-color: orange;\"></div>","<div class=\"slotmachine\" style=\"position: absolute; top:10vh; left:55vw; width: 35vw; height: 35vh; border-color: blue;\"></div>"],"response":1,"value":0,"trial_type":"html-choice","trial_index":46,"time_elapsed":79319,"internal_node_id":"0.0-1.0-0.21","bean_trial_duration":null,"bean_duration":null,"bean_html_array":["<div class=\"slotmachine\" style=\"position: absolute; top:10vh; left:10vw; width: 35vw; height: 35vh; border-color: orange ></div>","<div class=\"slotmachine\" style=\"position: absolute; top:10vh; left:55vw; width: 35vw; height: 35vh; border-color: blue ></div>"],"bean_values":[1,0],"bean_time_after_response":2000,"bean_type":"jsPsychHtmlChoice","bean_bandits":[{"color":"orange","value":1},{"color":"blue","value":0}],"bean_value":0,"bean_score":13},{"rt":null,"stimulus":"<div style='color:white'>Score: 13</div>","response":null,"trial_type":"html-keyboard-response","trial_index":47,"time_elapsed":80322,"internal_node_id":"0.0-1.0-1.21","bean_trial_duration":1000,"bean_duration":1000,"bean_stimulus":"<div style='color:white'>Score: 13</div>","bean_choices":[],"bean_correct_key":"","bean_type":"jsPsychHtmlKeyboardResponse","bean_text":"Score: 13","bean_color":"white","bean_correct":false},{"rt":424,"stimulus":["<div class=\"slotmachine\" style=\"position: absolute; top:10vh; left:10vw; width: 35vw; height: 35vh; border-color: orange;\"></div>","<div class=\"slotmachine\" style=\"position: absolute; top:10vh; left:55vw; width: 35vw; height: 35vh; border-color: blue;\"></div>"],"response":0,"value":0,"trial_type":"html-choice","trial_index":48,"time_elapsed":82748,"internal_node_id":"0.0-1.0-0.22","bean_trial_duration":null,"bean_duration":null,"bean_html_array":["<div class=\"slotmachine\" style=\"position: absolute; top:10vh; left:10vw; width: 35vw; height: 35vh; border-color: orange ></div>","<div class=\"slotmachine\" style=\"position: absolute; top:10vh; left:55vw; width: 35vw; height: 35vh; border-color: blue ></div>"],"bean_values":[0,1],"bean_time_after_response":2000,"bean_type":"jsPsychHtmlChoice","bean_bandits":[{"color":"orange","value":0},{"color":"blue","value":1}],"bean_value":0,"bean_score":13},{"rt":null,"stimulus":"<div style='color:white'>Score: 13</div>","response":null,"trial_type":"html-keyboard-response","trial_index":49,"time_elapsed":83751,"internal_node_id":"0.0-1.0-1.22","bean_trial_duration":1000,"bean_duration":1000,"bean_stimulus":"<div style='color:white'>Score: 13</div>","bean_choices":[],"bean_correct_key":"","bean_type":"jsPsychHtmlKeyboardResponse","bean_text":"Score: 13","bean_color":"white","bean_correct":false},{"rt":320,"stimulus":["<div class=\"slotmachine\" style=\"position: absolute; top:10vh; left:10vw; width: 35vw; height: 35vh; border-color: orange;\"></div>","<div class=\"slotmachine\" style=\"position: absolute; top:10vh; left:55vw; width: 35vw; height: 35vh; border-color: blue;\"></div>"],"response":0,"value":1,"trial_type":"html-choice","trial_index":50,"time_elapsed":86074,"internal_node_id":"0.0-1.0-0.23","bean_trial_duration":null,"bean_duration":null,"bean_html_array":["<div class=\"slotmachine\" style=\"position: absolute; top:10vh; left:10vw; width: 35vw; height: 35vh; border-color: orange ></div>","<div class=\"slotmachine\" style=\"position: absolute; top:10vh; left:55vw; width: 35vw; height: 35vh; border-color: blue ></div>"],"bean_values":[1,1],"bean_time_after_response":2000,"bean_type":"jsPsychHtmlChoice","bean_bandits":[{"color":"orange","value":1},{"color":"blue","value":1}],"bean_value":1,"bean_score":14},{"rt":null,"stimulus":"<div style='color:white'>Score: 14</div>","response":null,"trial_type":"html-keyboard-response","trial_index":51,"time_elapsed":87076,"internal_node_id":"0.0-1.0-1.23","bean_trial_duration":1000,"bean_duration":1000,"bean_stimulus":"<div style='color:white'>Score: 14</div>","bean_choices":[],"bean_correct_key":"","bean_type":"jsPsychHtmlKeyboardResponse","bean_text":"Score: 14","bean_color":"white","bean_correct":false},{"rt":822,"stimulus":["<div class=\"slotmachine\" style=\"position: absolute; top:10vh; left:10vw; width: 35vw; height: 35vh; border-color: orange;\"></div>","<div class=\"slotmachine\" style=\"position: absolute; top:10vh; left:55vw; width: 35vw; height: 35vh; border-color: blue;\"></div>"],"response":0,"value":1,"trial_type":"html-choice","trial_index":52,"time_elapsed":89900,"internal_node_id":"0.0-1.0-0.24","bean_trial_duration":null,"bean_duration":null,"bean_html_array":["<div class=\"slotmachine\" style=\"position: absolute; top:10vh; left:10vw; width: 35vw; height: 35vh; border-color: orange ></div>","<div class=\"slotmachine\" style=\"position: absolute; top:10vh; left:55vw; width: 35vw; height: 35vh; border-color: blue ></div>"],"bean_values":[1,0],"bean_time_after_response":2000,"bean_type":"jsPsychHtmlChoice","bean_bandits":[{"color":"orange","value":1},{"color":"blue","value":0}],"bean_value":1,"bean_score":15},{"rt":null,"stimulus":"<div style='color:white'>Score: 15</div>","response":null,"trial_type":"html-keyboard-response","trial_index":53,"time_elapsed":90902,"internal_node_id":"0.0-1.0-1.24","bean_trial_duration":1000,"bean_duration":1000,"bean_stimulus":"<div style='color:white'>Score: 15</div>","bean_choices":[],"bean_correct_key":"","bean_type":"jsPsychHtmlKeyboardResponse","bean_text":"Score: 15","bean_color":"white","bean_correct":false},{"rt":577,"stimulus":["<div class=\"slotmachine\" style=\"position: absolute; top:10vh; left:10vw; width: 35vw; height: 35vh; border-color: orange;\"></div>","<div class=\"slotmachine\" style=\"position: absolute; top:10vh; left:55vw; width: 35vw; height: 35vh; border-color: blue;\"></div>"],"response":0,"value":1,"trial_type":"html-choice","trial_index":54,"time_elapsed":93481,"internal_node_id":"0.0-1.0-0.25","bean_trial_duration":null,"bean_duration":null,"bean_html_array":["<div class=\"slotmachine\" style=\"position: absolute; top:10vh; left:10vw; width: 35vw; height: 35vh; border-color: orange ></div>","<div class=\"slotmachine\" style=\"position: absolute; top:10vh; left:55vw; width: 35vw; height: 35vh; border-color: blue ></div>"],"bean_values":[1,0],"bean_time_after_response":2000,"bean_type":"jsPsychHtmlChoice","bean_bandits":[{"color":"orange","value":1},{"color":"blue","value":0}],"bean_value":1,"bean_score":16},{"rt":null,"stimulus":"<div style='color:white'>Score: 16</div>","response":null,"trial_type":"html-keyboard-response","trial_index":55,"time_elapsed":94484,"internal_node_id":"0.0-1.0-1.25","bean_trial_duration":1000,"bean_duration":1000,"bean_stimulus":"<div style='color:white'>Score: 16</div>","bean_choices":[],"bean_correct_key":"","bean_type":"jsPsychHtmlKeyboardResponse","bean_text":"Score: 16","bean_color":"white","bean_correct":false},{"rt":528,"stimulus":["<div class=\"slotmachine\" style=\"position: absolute; top:10vh; left:10vw; width: 35vw; height: 35vh; border-color: orange;\"></div>","<div class=\"slotmachine\" style=\"position: absolute; top:10vh; left:55vw; width: 35vw; height: 35vh; border-color: blue;\"></div>"],"response":1,"value":1,"trial_type":"html-choice","trial_index":56,"time_elapsed":97014,"internal_node_id":"0.0-1.0-0.26","bean_trial_duration":null,"bean_duration":null,"bean_html_array":["<div class=\"slotmachine\" style=\"position: absolute; top:10vh; left:10vw; width: 35vw; height: 35vh; border-color: orange ></div>","<div class=\"slotmachine\" style=\"position: absolute; top:10vh; left:55vw; width: 35vw; height: 35vh; border-color: blue ></div>"],"bean_values":[1,1],"bean_time_after_response":2000,"bean_type":"jsPsychHtmlChoice","bean_bandits":[{"color":"orange","value":1},{"color":"blue","value":1}],"bean_value":1,"bean_score":17},{"rt":null,"stimulus":"<div style='color:white'>Score: 17</div>","response":null,"trial_type":"html-keyboard-response","trial_index":57,"time_elapsed":98016,"internal_node_id":"0.0-1.0-1.26","bean_trial_duration":1000,"bean_duration":1000,"bean_stimulus":"<div style='color:white'>Score: 17</div>","bean_choices":[],"bean_correct_key":"","bean_type":"jsPsychHtmlKeyboardResponse","bean_text":"Score: 17","bean_color":"white","bean_correct":false},{"rt":149,"stimulus":["<div class=\"slotmachine\" style=\"position: absolute; top:10vh; left:10vw; width: 35vw; height: 35vh; border-color: orange;\"></div>","<div class=\"slotmachine\" style=\"position: absolute; top:10vh; left:55vw; width: 35vw; height: 35vh; border-color: blue;\"></div>"],"response":1,"value":0,"trial_type":"html-choice","trial_index":58,"time_elapsed":100166,"internal_node_id":"0.0-1.0-0.27","bean_trial_duration":null,"bean_duration":null,"bean_html_array":["<div class=\"slotmachine\" style=\"position: absolute; top:10vh; left:10vw; width: 35vw; height: 35vh; border-color: orange ></div>","<div class=\"slotmachine\" style=\"position: absolute; top:10vh; left:55vw; width: 35vw; height: 35vh; border-color: blue ></div>"],"bean_values":[0,0],"bean_time_after_response":2000,"bean_type":"jsPsychHtmlChoice","bean_bandits":[{"color":"orange","value":0},{"color":"blue","value":0}],"bean_value":0,"bean_score":17},{"rt":null,"stimulus":"<div style='color:white'>Score: 17</div>","response":null,"trial_type":"html-keyboard-response","trial_index":59,"time_elapsed":101168,"internal_node_id":"0.0-1.0-1.27","bean_trial_duration":1000,"bean_duration":1000,"bean_stimulus":"<div style='color:white'>Score: 17</div>","bean_choices":[],"bean_correct_key":"","bean_type":"jsPsychHtmlKeyboardResponse","bean_text":"Score: 17","bean_color":"white","bean_correct":false},{"rt":20580,"stimulus":["<div class=\"slotmachine\" style=\"position: absolute; top:10vh; left:10vw; width: 35vw; height: 35vh; border-color: orange;\"></div>","<div class=\"slotmachine\" style=\"position: absolute; top:10vh; left:55vw; width: 35vw; height: 35vh; border-color: blue;\"></div>"],"response":0,"value":1,"trial_type":"html-choice","trial_index":60,"time_elapsed":123751,"internal_node_id":"0.0-1.0-0.28","bean_trial_duration":null,"bean_duration":null,"bean_html_array":["<div class=\"slotmachine\" style=\"position: absolute; top:10vh; left:10vw; width: 35vw; height: 35vh; border-color: orange ></div>","<div class=\"slotmachine\" style=\"position: absolute; top:10vh; left:55vw; width: 35vw; height: 35vh; border-color: blue ></div>"],"bean_values":[1,0],"bean_time_after_response":2000,"bean_type":"jsPsychHtmlChoice","bean_bandits":[{"color":"orange","value":1},{"color":"blue","value":0}],"bean_value":1,"bean_score":18},{"rt":null,"stimulus":"<div style='color:white'>Score: 18</div>","response":null,"trial_type":"html-keyboard-response","trial_index":61,"time_elapsed":124755,"internal_node_id":"0.0-1.0-1.28","bean_trial_duration":1000,"bean_duration":1000,"bean_stimulus":"<div style='color:white'>Score: 18</div>","bean_choices":[],"bean_correct_key":"","bean_type":"jsPsychHtmlKeyboardResponse","bean_text":"Score: 18","bean_color":"white","bean_correct":false},{"rt":774,"stimulus":["<div class=\"slotmachine\" style=\"position: absolute; top:10vh; left:10vw; width: 35vw; height: 35vh; border-color: orange;\"></div>","<div class=\"slotmachine\" style=\"position: absolute; top:10vh; left:55vw; width: 35vw; height: 35vh; border-color: blue;\"></div>"],"response":1,"value":0,"trial_type":"html-choice","trial_index":62,"time_elapsed":127532,"internal_node_id":"0.0-1.0-0.29","bean_trial_duration":null,"bean_duration":null,"bean_html_array":["<div class=\"slotmachine\" style=\"position: absolute; top:10vh; left:10vw; width: 35vw; height: 35vh; border-color: orange ></div>","<div class=\"slotmachine\" style=\"position: absolute; top:10vh; left:55vw; width: 35vw; height: 35vh; border-color: blue ></div>"],"bean_values":[0,0],"bean_time_after_response":2000,"bean_type":"jsPsychHtmlChoice","bean_bandits":[{"color":"orange","value":0},{"color":"blue","value":0}],"bean_value":0,"bean_score":18},{"rt":null,"stimulus":"<div style='color:white'>Score: 18</div>","response":null,"trial_type":"html-keyboard-response","trial_index":63,"time_elapsed":128534,"internal_node_id":"0.0-1.0-1.29","bean_trial_duration":1000,"bean_duration":1000,"bean_stimulus":"<div style='color:white'>Score: 18</div>","bean_choices":[],"bean_correct_key":"","bean_type":"jsPsychHtmlKeyboardResponse","bean_text":"Score: 18","bean_color":"white","bean_correct":false},{"rt":91362,"stimulus":["<div class=\"slotmachine\" style=\"position: absolute; top:10vh; left:10vw; width: 35vw; height: 35vh; border-color: orange;\"></div>","<div class=\"slotmachine\" style=\"position: absolute; top:10vh; left:55vw; width: 35vw; height: 35vh; border-color: blue;\"></div>"],"response":1,"value":0,"trial_type":"html-choice","trial_index":64,"time_elapsed":221898,"internal_node_id":"0.0-1.0-0.30","bean_trial_duration":null,"bean_duration":null,"bean_html_array":["<div class=\"slotmachine\" style=\"position: absolute; top:10vh; left:10vw; width: 35vw; height: 35vh; border-color: orange ></div>","<div class=\"slotmachine\" style=\"position: absolute; top:10vh; left:55vw; width: 35vw; height: 35vh; border-color: blue ></div>"],"bean_values":[0,0],"bean_time_after_response":2000,"bean_type":"jsPsychHtmlChoice","bean_bandits":[{"color":"orange","value":0},{"color":"blue","value":0}],"bean_value":0,"bean_score":18},{"rt":null,"stimulus":"<div style='color:white'>Score: 18</div>","response":null,"trial_type":"html-keyboard-response","trial_index":65,"time_elapsed":222901,"internal_node_id":"0.0-1.0-1.30","bean_trial_duration":1000,"bean_duration":1000,"bean_stimulus":"<div style='color:white'>Score: 18</div>","bean_choices":[],"bean_correct_key":"","bean_type":"jsPsychHtmlKeyboardResponse","bean_text":"Score: 18","bean_color":"white","bean_correct":false},{"rt":523,"stimulus":["<div class=\"slotmachine\" style=\"position: absolute; top:10vh; left:10vw; width: 35vw; height: 35vh; border-color: orange;\"></div>","<div class=\"slotmachine\" style=\"position: absolute; top:10vh; left:55vw; width: 35vw; height: 35vh; border-color: blue;\"></div>"],"response":0,"value":1,"trial_type":"html-choice","trial_index":66,"time_elapsed":225427,"internal_node_id":"0.0-1.0-0.31","bean_trial_duration":null,"bean_duration":null,"bean_html_array":["<div class=\"slotmachine\" style=\"position: absolute; top:10vh; left:10vw; width: 35vw; height: 35vh; border-color: orange ></div>","<div class=\"slotmachine\" style=\"position: absolute; top:10vh; left:55vw; width: 35vw; height: 35vh; border-color: blue ></div>"],"bean_values":[1,1],"bean_time_after_response":2000,"bean_type":"jsPsychHtmlChoice","bean_bandits":[{"color":"orange","value":1},{"color":"blue","value":1}],"bean_value":1,"bean_score":19},{"rt":null,"stimulus":"<div style='color:white'>Score: 19</div>","response":null,"trial_type":"html-keyboard-response","trial_index":67,"time_elapsed":226430,"internal_node_id":"0.0-1.0-1.31","bean_trial_duration":1000,"bean_duration":1000,"bean_stimulus":"<div style='color:white'>Score: 19</div>","bean_choices":[],"bean_correct_key":"","bean_type":"jsPsychHtmlKeyboardResponse","bean_text":"Score: 19","bean_color":"white","bean_correct":false},{"rt":279,"stimulus":["<div class=\"slotmachine\" style=\"position: absolute; top:10vh; left:10vw; width: 35vw; height: 35vh; border-color: orange;\"></div>","<div class=\"slotmachine\" style=\"position: absolute; top:10vh; left:55vw; width: 35vw; height: 35vh; border-color: blue;\"></div>"],"response":0,"value":0,"trial_type":"html-choice","trial_index":68,"time_elapsed":228711,"internal_node_id":"0.0-1.0-0.32","bean_trial_duration":null,"bean_duration":null,"bean_html_array":["<div class=\"slotmachine\" style=\"position: absolute; top:10vh; left:10vw; width: 35vw; height: 35vh; border-color: orange ></div>","<div class=\"slotmachine\" style=\"position: absolute; top:10vh; left:55vw; width: 35vw; height: 35vh; border-color: blue ></div>"],"bean_values":[0,0],"bean_time_after_response":2000,"bean_type":"jsPsychHtmlChoice","bean_bandits":[{"color":"orange","value":0},{"color":"blue","value":0}],"bean_value":0,"bean_score":19},{"rt":null,"stimulus":"<div style='color:white'>Score: 19</div>","response":null,"trial_type":"html-keyboard-response","trial_index":69,"time_elapsed":229713,"internal_node_id":"0.0-1.0-1.32","bean_trial_duration":1000,"bean_duration":1000,"bean_stimulus":"<div style='color:white'>Score: 19</div>","bean_choices":[],"bean_correct_key":"","bean_type":"jsPsychHtmlKeyboardResponse","bean_text":"Score: 19","bean_color":"white","bean_correct":false},{"rt":655,"stimulus":["<div class=\"slotmachine\" style=\"position: absolute; top:10vh; left:10vw; width: 35vw; height: 35vh; border-color: orange;\"></div>","<div class=\"slotmachine\" style=\"position: absolute; top:10vh; left:55vw; width: 35vw; height: 35vh; border-color: blue;\"></div>"],"response":0,"value":1,"trial_type":"html-choice","trial_index":70,"time_elapsed":232370,"internal_node_id":"0.0-1.0-0.33","bean_trial_duration":null,"bean_duration":null,"bean_html_array":["<div class=\"slotmachine\" style=\"position: absolute; top:10vh; left:10vw; width: 35vw; height: 35vh; border-color: orange ></div>","<div class=\"slotmachine\" style=\"position: absolute; top:10vh; left:55vw; width: 35vw; height: 35vh; border-color: blue ></div>"],"bean_values":[1,1],"bean_time_after_response":2000,"bean_type":"jsPsychHtmlChoice","bean_bandits":[{"color":"orange","value":1},{"color":"blue","value":1}],"bean_value":1,"bean_score":20},{"rt":null,"stimulus":"<div style='color:white'>Score: 20</div>","response":null,"trial_type":"html-keyboard-response","trial_index":71,"time_elapsed":233370,"internal_node_id":"0.0-1.0-1.33","bean_trial_duration":1000,"bean_duration":1000,"bean_stimulus":"<div style='color:white'>Score: 20</div>","bean_choices":[],"bean_correct_key":"","bean_type":"jsPsychHtmlKeyboardResponse","bean_text":"Score: 20","bean_color":"white","bean_correct":false},{"rt":501,"stimulus":["<div class=\"slotmachine\" style=\"position: absolute; top:10vh; left:10vw; width: 35vw; height: 35vh; border-color: orange;\"></div>","<div class=\"slotmachine\" style=\"position: absolute; top:10vh; left:55vw; width: 35vw; height: 35vh; border-color: blue;\"></div>"],"response":1,"value":0,"trial_type":"html-choice","trial_index":72,"time_elapsed":235874,"internal_node_id":"0.0-1.0-0.34","bean_trial_duration":null,"bean_duration":null,"bean_html_array":["<div class=\"slotmachine\" style=\"position: absolute; top:10vh; left:10vw; width: 35vw; height: 35vh; border-color: orange ></div>","<div class=\"slotmachine\" style=\"position: absolute; top:10vh; left:55vw; width: 35vw; height: 35vh; border-color: blue ></div>"],"bean_values":[1,0],"bean_time_after_response":2000,"bean_type":"jsPsychHtmlChoice","bean_bandits":[{"color":"orange","value":1},{"color":"blue","value":0}],"bean_value":0,"bean_score":20},{"rt":null,"stimulus":"<div style='color:white'>Score: 20</div>","response":null,"trial_type":"html-keyboard-response","trial_index":73,"time_elapsed":236876,"internal_node_id":"0.0-1.0-1.34","bean_trial_duration":1000,"bean_duration":1000,"bean_stimulus":"<div style='color:white'>Score: 20</div>","bean_choices":[],"bean_correct_key":"","bean_type":"jsPsychHtmlKeyboardResponse","bean_text":"Score: 20","bean_color":"white","bean_correct":false},{"rt":949,"stimulus":["<div class=\"slotmachine\" style=\"position: absolute; top:10vh; left:10vw; width: 35vw; height: 35vh; border-color: orange;\"></div>","<div class=\"slotmachine\" style=\"position: absolute; top:10vh; left:55vw; width: 35vw; height: 35vh; border-color: blue;\"></div>"],"response":0,"value":0,"trial_type":"html-choice","trial_index":74,"time_elapsed":239828,"internal_node_id":"0.0-1.0-0.35","bean_trial_duration":null,"bean_duration":null,"bean_html_array":["<div class=\"slotmachine\" style=\"position: absolute; top:10vh; left:10vw; width: 35vw; height: 35vh; border-color: orange ></div>","<div class=\"slotmachine\" style=\"position: absolute; top:10vh; left:55vw; width: 35vw; height: 35vh; border-color: blue ></div>"],"bean_values":[0,0],"bean_time_after_response":2000,"bean_type":"jsPsychHtmlChoice","bean_bandits":[{"color":"orange","value":0},{"color":"blue","value":0}],"bean_value":0,"bean_score":20},{"rt":null,"stimulus":"<div style='color:white'>Score: 20</div>","response":null,"trial_type":"html-keyboard-response","trial_index":75,"time_elapsed":240831,"internal_node_id":"0.0-1.0-1.35","bean_trial_duration":1000,"bean_duration":1000,"bean_stimulus":"<div style='color:white'>Score: 20</div>","bean_choices":[],"bean_correct_key":"","bean_type":"jsPsychHtmlKeyboardResponse","bean_text":"Score: 20","bean_color":"white","bean_correct":false},{"rt":369,"stimulus":["<div class=\"slotmachine\" style=\"position: absolute; top:10vh; left:10vw; width: 35vw; height: 35vh; border-color: orange;\"></div>","<div class=\"slotmachine\" style=\"position: absolute; top:10vh; left:55vw; width: 35vw; height: 35vh; border-color: blue;\"></div>"],"response":1,"value":0,"trial_type":"html-choice","trial_index":76,"time_elapsed":243202,"internal_node_id":"0.0-1.0-0.36","bean_trial_duration":null,"bean_duration":null,"bean_html_array":["<div class=\"slotmachine\" style=\"position: absolute; top:10vh; left:10vw; width: 35vw; height: 35vh; border-color: orange ></div>","<div class=\"slotmachine\" style=\"position: absolute; top:10vh; left:55vw; width: 35vw; height: 35vh; border-color: blue ></div>"],"bean_values":[1,0],"bean_time_after_response":2000,"bean_type":"jsPsychHtmlChoice","bean_bandits":[{"color":"orange","value":1},{"color":"blue","value":0}],"bean_value":0,"bean_score":20},{"rt":null,"stimulus":"<div style='color:white'>Score: 20</div>","response":null,"trial_type":"html-keyboard-response","trial_index":77,"time_elapsed":244204,"internal_node_id":"0.0-1.0-1.36","bean_trial_duration":1000,"bean_duration":1000,"bean_stimulus":"<div style='color:white'>Score: 20</div>","bean_choices":[],"bean_correct_key":"","bean_type":"jsPsychHtmlKeyboardResponse","bean_text":"Score: 20","bean_color":"white","bean_correct":false},{"rt":442,"stimulus":["<div class=\"slotmachine\" style=\"position: absolute; top:10vh; left:10vw; width: 35vw; height: 35vh; border-color: orange;\"></div>","<div class=\"slotmachine\" style=\"position: absolute; top:10vh; left:55vw; width: 35vw; height: 35vh; border-color: blue;\"></div>"],"response":1,"value":0,"trial_type":"html-choice","trial_index":78,"time_elapsed":246647,"internal_node_id":"0.0-1.0-0.37","bean_trial_duration":null,"bean_duration":null,"bean_html_array":["<div class=\"slotmachine\" style=\"position: absolute; top:10vh; left:10vw; width: 35vw; height: 35vh; border-color: orange ></div>","<div class=\"slotmachine\" style=\"position: absolute; top:10vh; left:55vw; width: 35vw; height: 35vh; border-color: blue ></div>"],"bean_values":[1,0],"bean_time_after_response":2000,"bean_type":"jsPsychHtmlChoice","bean_bandits":[{"color":"orange","value":1},{"color":"blue","value":0}],"bean_value":0,"bean_score":20},{"rt":null,"stimulus":"<div style='color:white'>Score: 20</div>","response":null,"trial_type":"html-keyboard-response","trial_index":79,"time_elapsed":247649,"internal_node_id":"0.0-1.0-1.37","bean_trial_duration":1000,"bean_duration":1000,"bean_stimulus":"<div style='color:white'>Score: 20</div>","bean_choices":[],"bean_correct_key":"","bean_type":"jsPsychHtmlKeyboardResponse","bean_text":"Score: 20","bean_color":"white","bean_correct":false},{"rt":440,"stimulus":["<div class=\"slotmachine\" style=\"position: absolute; top:10vh; left:10vw; width: 35vw; height: 35vh; border-color: orange;\"></div>","<div class=\"slotmachine\" style=\"position: absolute; top:10vh; left:55vw; width: 35vw; height: 35vh; border-color: blue;\"></div>"],"response":0,"value":0,"trial_type":"html-choice","trial_index":80,"time_elapsed":250091,"internal_node_id":"0.0-1.0-0.38","bean_trial_duration":null,"bean_duration":null,"bean_html_array":["<div class=\"slotmachine\" style=\"position: absolute; top:10vh; left:10vw; width: 35vw; height: 35vh; border-color: orange ></div>","<div class=\"slotmachine\" style=\"position: absolute; top:10vh; left:55vw; width: 35vw; height: 35vh; border-color: blue ></div>"],"bean_values":[0,1],"bean_time_after_response":2000,"bean_type":"jsPsychHtmlChoice","bean_bandits":[{"color":"orange","value":0},{"color":"blue","value":1}],"bean_value":0,"bean_score":20},{"rt":null,"stimulus":"<div style='color:white'>Score: 20</div>","response":null,"trial_type":"html-keyboard-response","trial_index":81,"time_elapsed":251093,"internal_node_id":"0.0-1.0-1.38","bean_trial_duration":1000,"bean_duration":1000,"bean_stimulus":"<div style='color:white'>Score: 20</div>","bean_choices":[],"bean_correct_key":"","bean_type":"jsPsychHtmlKeyboardResponse","bean_text":"Score: 20","bean_color":"white","bean_correct":false},{"rt":661,"stimulus":["<div class=\"slotmachine\" style=\"position: absolute; top:10vh; left:10vw; width: 35vw; height: 35vh; border-color: orange;\"></div>","<div class=\"slotmachine\" style=\"position: absolute; top:10vh; left:55vw; width: 35vw; height: 35vh; border-color: blue;\"></div>"],"response":0,"value":1,"trial_type":"html-choice","trial_index":82,"time_elapsed":253756,"internal_node_id":"0.0-1.0-0.39","bean_trial_duration":null,"bean_duration":null,"bean_html_array":["<div class=\"slotmachine\" style=\"position: absolute; top:10vh; left:10vw; width: 35vw; height: 35vh; border-color: orange ></div>","<div class=\"slotmachine\" style=\"position: absolute; top:10vh; left:55vw; width: 35vw; height: 35vh; border-color: blue ></div>"],"bean_values":[1,0],"bean_time_after_response":2000,"bean_type":"jsPsychHtmlChoice","bean_bandits":[{"color":"orange","value":1},{"color":"blue","value":0}],"bean_value":1,"bean_score":21},{"rt":null,"stimulus":"<div style='color:white'>Score: 21</div>","response":null,"trial_type":"html-keyboard-response","trial_index":83,"time_elapsed":254758,"internal_node_id":"0.0-1.0-1.39","bean_trial_duration":1000,"bean_duration":1000,"bean_stimulus":"<div style='color:white'>Score: 21</div>","bean_choices":[],"bean_correct_key":"","bean_type":"jsPsychHtmlKeyboardResponse","bean_text":"Score: 21","bean_color":"white","bean_correct":false},{"rt":306,"stimulus":["<div class=\"slotmachine\" style=\"position: absolute; top:10vh; left:10vw; width: 35vw; height: 35vh; border-color: orange;\"></div>","<div class=\"slotmachine\" style=\"position: absolute; top:10vh; left:55vw; width: 35vw; height: 35vh; border-color: blue;\"></div>"],"response":0,"value":0,"trial_type":"html-choice","trial_index":84,"time_elapsed":257067,"internal_node_id":"0.0-1.0-0.40","bean_trial_duration":null,"bean_duration":null,"bean_html_array":["<div class=\"slotmachine\" style=\"position: absolute; top:10vh; left:10vw; width: 35vw; height: 35vh; border-color: orange ></div>","<div class=\"slotmachine\" style=\"position: absolute; top:10vh; left:55vw; width: 35vw; height: 35vh; border-color: blue ></div>"],"bean_values":[0,1],"bean_time_after_response":2000,"bean_type":"jsPsychHtmlChoice","bean_bandits":[{"color":"orange","value":0},{"color":"blue","value":1}],"bean_value":0,"bean_score":21},{"rt":null,"stimulus":"<div style='color:white'>Score: 21</div>","response":null,"trial_type":"html-keyboard-response","trial_index":85,"time_elapsed":258070,"internal_node_id":"0.0-1.0-1.40","bean_trial_duration":1000,"bean_duration":1000,"bean_stimulus":"<div style='color:white'>Score: 21</div>","bean_choices":[],"bean_correct_key":"","bean_type":"jsPsychHtmlKeyboardResponse","bean_text":"Score: 21","bean_color":"white","bean_correct":false},{"rt":271,"stimulus":["<div class=\"slotmachine\" style=\"position: absolute; top:10vh; left:10vw; width: 35vw; height: 35vh; border-color: orange;\"></div>","<div class=\"slotmachine\" style=\"position: absolute; top:10vh; left:55vw; width: 35vw; height: 35vh; border-color: blue;\"></div>"],"response":1,"value":0,"trial_type":"html-choice","trial_index":86,"time_elapsed":260344,"internal_node_id":"0.0-1.0-0.41","bean_trial_duration":null,"bean_duration":null,"bean_html_array":["<div class=\"slotmachine\" style=\"position: absolute; top:10vh; left:10vw; width: 35vw; height: 35vh; border-color: orange ></div>","<div class=\"slotmachine\" style=\"position: absolute; top:10vh; left:55vw; width: 35vw; height: 35vh; border-color: blue ></div>"],"bean_values":[1,0],"bean_time_after_response":2000,"bean_type":"jsPsychHtmlChoice","bean_bandits":[{"color":"orange","value":1},{"color":"blue","value":0}],"bean_value":0,"bean_score":21},{"rt":null,"stimulus":"<div style='color:white'>Score: 21</div>","response":null,"trial_type":"html-keyboard-response","trial_index":87,"time_elapsed":261347,"internal_node_id":"0.0-1.0-1.41","bean_trial_duration":1000,"bean_duration":1000,"bean_stimulus":"<div style='color:white'>Score: 21</div>","bean_choices":[],"bean_correct_key":"","bean_type":"jsPsychHtmlKeyboardResponse","bean_text":"Score: 21","bean_color":"white","bean_correct":false},{"rt":334,"stimulus":["<div class=\"slotmachine\" style=\"position: absolute; top:10vh; left:10vw; width: 35vw; height: 35vh; border-color: orange;\"></div>","<div class=\"slotmachine\" style=\"position: absolute; top:10vh; left:55vw; width: 35vw; height: 35vh; border-color: blue;\"></div>"],"response":1,"value":0,"trial_type":"html-choice","trial_index":88,"time_elapsed":263684,"internal_node_id":"0.0-1.0-0.42","bean_trial_duration":null,"bean_duration":null,"bean_html_array":["<div class=\"slotmachine\" style=\"position: absolute; top:10vh; left:10vw; width: 35vw; height: 35vh; border-color: orange ></div>","<div class=\"slotmachine\" style=\"position: absolute; top:10vh; left:55vw; width: 35vw; height: 35vh; border-color: blue ></div>"],"bean_values":[1,0],"bean_time_after_response":2000,"bean_type":"jsPsychHtmlChoice","bean_bandits":[{"color":"orange","value":1},{"color":"blue","value":0}],"bean_value":0,"bean_score":21},{"rt":null,"stimulus":"<div style='color:white'>Score: 21</div>","response":null,"trial_type":"html-keyboard-response","trial_index":89,"time_elapsed":264687,"internal_node_id":"0.0-1.0-1.42","bean_trial_duration":1000,"bean_duration":1000,"bean_stimulus":"<div style='color:white'>Score: 21</div>","bean_choices":[],"bean_correct_key":"","bean_type":"jsPsychHtmlKeyboardResponse","bean_text":"Score: 21","bean_color":"white","bean_correct":false},{"rt":524,"stimulus":["<div class=\"slotmachine\" style=\"position: absolute; top:10vh; left:10vw; width: 35vw; height: 35vh; border-color: orange;\"></div>","<div class=\"slotmachine\" style=\"position: absolute; top:10vh; left:55vw; width: 35vw; height: 35vh; border-color: blue;\"></div>"],"response":1,"value":0,"trial_type":"html-choice","trial_index":90,"time_elapsed":267213,"internal_node_id":"0.0-1.0-0.43","bean_trial_duration":null,"bean_duration":null,"bean_html_array":["<div class=\"slotmachine\" style=\"position: absolute; top:10vh; left:10vw; width: 35vw; height: 35vh; border-color: orange ></div>","<div class=\"slotmachine\" style=\"position: absolute; top:10vh; left:55vw; width: 35vw; height: 35vh; border-color: blue ></div>"],"bean_values":[1,0],"bean_time_after_response":2000,"bean_type":"jsPsychHtmlChoice","bean_bandits":[{"color":"orange","value":1},{"color":"blue","value":0}],"bean_value":0,"bean_score":21},{"rt":null,"stimulus":"<div style='color:white'>Score: 21</div>","response":null,"trial_type":"html-keyboard-response","trial_index":91,"time_elapsed":268216,"internal_node_id":"0.0-1.0-1.43","bean_trial_duration":1000,"bean_duration":1000,"bean_stimulus":"<div style='color:white'>Score: 21</div>","bean_choices":[],"bean_correct_key":"","bean_type":"jsPsychHtmlKeyboardResponse","bean_text":"Score: 21","bean_color":"white","bean_correct":false},{"rt":336,"stimulus":["<div class=\"slotmachine\" style=\"position: absolute; top:10vh; left:10vw; width: 35vw; height: 35vh; border-color: orange;\"></div>","<div class=\"slotmachine\" style=\"position: absolute; top:10vh; left:55vw; width: 35vw; height: 35vh; border-color: blue;\"></div>"],"response":0,"value":1,"trial_type":"html-choice","trial_index":92,"time_elapsed":270553,"internal_node_id":"0.0-1.0-0.44","bean_trial_duration":null,"bean_duration":null,"bean_html_array":["<div class=\"slotmachine\" style=\"position: absolute; top:10vh; left:10vw; width: 35vw; height: 35vh; border-color: orange ></div>","<div class=\"slotmachine\" style=\"position: absolute; top:10vh; left:55vw; width: 35vw; height: 35vh; border-color: blue ></div>"],"bean_values":[1,0],"bean_time_after_response":2000,"bean_type":"jsPsychHtmlChoice","bean_bandits":[{"color":"orange","value":1},{"color":"blue","value":0}],"bean_value":1,"bean_score":22},{"rt":null,"stimulus":"<div style='color:white'>Score: 22</div>","response":null,"trial_type":"html-keyboard-response","trial_index":93,"time_elapsed":271556,"internal_node_id":"0.0-1.0-1.44","bean_trial_duration":1000,"bean_duration":1000,"bean_stimulus":"<div style='color:white'>Score: 22</div>","bean_choices":[],"bean_correct_key":"","bean_type":"jsPsychHtmlKeyboardResponse","bean_text":"Score: 22","bean_color":"white","bean_correct":false},{"rt":331,"stimulus":["<div class=\"slotmachine\" style=\"position: absolute; top:10vh; left:10vw; width: 35vw; height: 35vh; border-color: orange;\"></div>","<div class=\"slotmachine\" style=\"position: absolute; top:10vh; left:55vw; width: 35vw; height: 35vh; border-color: blue;\"></div>"],"response":0,"value":1,"trial_type":"html-choice","trial_index":94,"time_elapsed":273889,"internal_node_id":"0.0-1.0-0.45","bean_trial_duration":null,"bean_duration":null,"bean_html_array":["<div class=\"slotmachine\" style=\"position: absolute; top:10vh; left:10vw; width: 35vw; height: 35vh; border-color: orange ></div>","<div class=\"slotmachine\" style=\"position: absolute; top:10vh; left:55vw; width: 35vw; height: 35vh; border-color: blue ></div>"],"bean_values":[1,1],"bean_time_after_response":2000,"bean_type":"jsPsychHtmlChoice","bean_bandits":[{"color":"orange","value":1},{"color":"blue","value":1}],"bean_value":1,"bean_score":23},{"rt":null,"stimulus":"<div style='color:white'>Score: 23</div>","response":null,"trial_type":"html-keyboard-response","trial_index":95,"time_elapsed":274998,"internal_node_id":"0.0-1.0-1.45","bean_trial_duration":1000,"bean_duration":1000,"bean_stimulus":"<div style='color:white'>Score: 23</div>","bean_choices":[],"bean_correct_key":"","bean_type":"jsPsychHtmlKeyboardResponse","bean_text":"Score: 23","bean_color":"white","bean_correct":false},{"rt":344431,"stimulus":["<div class=\"slotmachine\" style=\"position: absolute; top:10vh; left:10vw; width: 35vw; height: 35vh; border-color: orange;\"></div>","<div class=\"slotmachine\" style=\"position: absolute; top:10vh; left:55vw; width: 35vw; height: 35vh; border-color: blue;\"></div>"],"response":1,"value":0,"trial_type":"html-choice","trial_index":96,"time_elapsed":621432,"internal_node_id":"0.0-1.0-0.46","bean_trial_duration":null,"bean_duration":null,"bean_html_array":["<div class=\"slotmachine\" style=\"position: absolute; top:10vh; left:10vw; width: 35vw; height: 35vh; border-color: orange ></div>","<div class=\"slotmachine\" style=\"position: absolute; top:10vh; left:55vw; width: 35vw; height: 35vh; border-color: blue ></div>"],"bean_values":[1,0],"bean_time_after_response":2000,"bean_type":"jsPsychHtmlChoice","bean_bandits":[{"color":"orange","value":1},{"color":"blue","value":0}],"bean_value":0,"bean_score":23},{"rt":null,"stimulus":"<div style='color:white'>Score: 23</div>","response":null,"trial_type":"html-keyboard-response","trial_index":97,"time_elapsed":622434,"internal_node_id":"0.0-1.0-1.46","bean_trial_duration":1000,"bean_duration":1000,"bean_stimulus":"<div style='color:white'>Score: 23</div>","bean_choices":[],"bean_correct_key":"","bean_type":"jsPsychHtmlKeyboardResponse","bean_text":"Score: 23","bean_color":"white","bean_correct":false},{"rt":397,"stimulus":["<div class=\"slotmachine\" style=\"position: absolute; top:10vh; left:10vw; width: 35vw; height: 35vh; border-color: orange;\"></div>","<div class=\"slotmachine\" style=\"position: absolute; top:10vh; left:55vw; width: 35vw; height: 35vh; border-color: blue;\"></div>"],"response":0,"value":1,"trial_type":"html-choice","trial_index":98,"time_elapsed":624834,"internal_node_id":"0.0-1.0-0.47","bean_trial_duration":null,"bean_duration":null,"bean_html_array":["<div class=\"slotmachine\" style=\"position: absolute; top:10vh; left:10vw; width: 35vw; height: 35vh; border-color: orange ></div>","<div class=\"slotmachine\" style=\"position: absolute; top:10vh; left:55vw; width: 35vw; height: 35vh; border-color: blue ></div>"],"bean_values":[1,0],"bean_time_after_response":2000,"bean_type":"jsPsychHtmlChoice","bean_bandits":[{"color":"orange","value":1},{"color":"blue","value":0}],"bean_value":1,"bean_score":24},{"rt":null,"stimulus":"<div style='color:white'>Score: 24</div>","response":null,"trial_type":"html-keyboard-response","trial_index":99,"time_elapsed":625836,"internal_node_id":"0.0-1.0-1.47","bean_trial_duration":1000,"bean_duration":1000,"bean_stimulus":"<div style='color:white'>Score: 24</div>","bean_choices":[],"bean_correct_key":"","bean_type":"jsPsychHtmlKeyboardResponse","bean_text":"Score: 24","bean_color":"white","bean_correct":false},{"rt":303,"stimulus":["<div class=\"slotmachine\" style=\"position: absolute; top:10vh; left:10vw; width: 35vw; height: 35vh; border-color: orange;\"></div>","<div class=\"slotmachine\" style=\"position: absolute; top:10vh; left:55vw; width: 35vw; height: 35vh; border-color: blue;\"></div>"],"response":0,"value":1,"trial_type":"html-choice","trial_index":100,"time_elapsed":628143,"internal_node_id":"0.0-1.0-0.48","bean_trial_duration":null,"bean_duration":null,"bean_html_array":["<div class=\"slotmachine\" style=\"position: absolute; top:10vh; left:10vw; width: 35vw; height: 35vh; border-color: orange ></div>","<div class=\"slotmachine\" style=\"position: absolute; top:10vh; left:55vw; width: 35vw; height: 35vh; border-color: blue ></div>"],"bean_values":[1,0],"bean_time_after_response":2000,"bean_type":"jsPsychHtmlChoice","bean_bandits":[{"color":"orange","value":1},{"color":"blue","value":0}],"bean_value":1,"bean_score":25},{"rt":null,"stimulus":"<div style='color:white'>Score: 25</div>","response":null,"trial_type":"html-keyboard-response","trial_index":101,"time_elapsed":629144,"internal_node_id":"0.0-1.0-1.48","bean_trial_duration":1000,"bean_duration":1000,"bean_stimulus":"<div style='color:white'>Score: 25</div>","bean_choices":[],"bean_correct_key":"","bean_type":"jsPsychHtmlKeyboardResponse","bean_text":"Score: 25","bean_color":"white","bean_correct":false},{"rt":360,"stimulus":["<div class=\"slotmachine\" style=\"position: absolute; top:10vh; left:10vw; width: 35vw; height: 35vh; border-color: orange;\"></div>","<div class=\"slotmachine\" style=\"position: absolute; top:10vh; left:55vw; width: 35vw; height: 35vh; border-color: blue;\"></div>"],"response":0,"value":1,"trial_type":"html-choice","trial_index":102,"time_elapsed":631506,"internal_node_id":"0.0-1.0-0.49","bean_trial_duration":null,"bean_duration":null,"bean_html_array":["<div class=\"slotmachine\" style=\"position: absolute; top:10vh; left:10vw; width: 35vw; height: 35vh; border-color: orange ></div>","<div class=\"slotmachine\" style=\"position: absolute; top:10vh; left:55vw; width: 35vw; height: 35vh; border-color: blue ></div>"],"bean_values":[1,0],"bean_time_after_response":2000,"bean_type":"jsPsychHtmlChoice","bean_bandits":[{"color":"orange","value":1},{"color":"blue","value":0}],"bean_value":1,"bean_score":26},{"rt":null,"stimulus":"<div style='color:white'>Score: 26</div>","response":null,"trial_type":"html-keyboard-response","trial_index":103,"time_elapsed":632508,"internal_node_id":"0.0-1.0-1.49","bean_trial_duration":1000,"bean_duration":1000,"bean_stimulus":"<div style='color:white'>Score: 26</div>","bean_choices":[],"bean_correct_key":"","bean_type":"jsPsychHtmlKeyboardResponse","bean_text":"Score: 26","bean_color":"white","bean_correct":false},{"rt":409,"stimulus":["<div class=\"slotmachine\" style=\"position: absolute; top:10vh; left:10vw; width: 35vw; height: 35vh; border-color: orange;\"></div>","<div class=\"slotmachine\" style=\"position: absolute; top:10vh; left:55vw; width: 35vw; height: 35vh; border-color: blue;\"></div>"],"response":1,"value":0,"trial_type":"html-choice","trial_index":104,"time_elapsed":634919,"internal_node_id":"0.0-1.0-0.50","bean_trial_duration":null,"bean_duration":null,"bean_html_array":["<div class=\"slotmachine\" style=\"position: absolute; top:10vh; left:10vw; width: 35vw; height: 35vh; border-color: orange ></div>","<div class=\"slotmachine\" style=\"position: absolute; top:10vh; left:55vw; width: 35vw; height: 35vh; border-color: blue ></div>"],"bean_values":[0,0],"bean_time_after_response":2000,"bean_type":"jsPsychHtmlChoice","bean_bandits":[{"color":"orange","value":0},{"color":"blue","value":0}],"bean_value":0,"bean_score":26},{"rt":null,"stimulus":"<div style='color:white'>Score: 26</div>","response":null,"trial_type":"html-keyboard-response","trial_index":105,"time_elapsed":635921,"internal_node_id":"0.0-1.0-1.50","bean_trial_duration":1000,"bean_duration":1000,"bean_stimulus":"<div style='color:white'>Score: 26</div>","bean_choices":[],"bean_correct_key":"","bean_type":"jsPsychHtmlKeyboardResponse","bean_text":"Score: 26","bean_color":"white","bean_correct":false},{"rt":344,"stimulus":["<div class=\"slotmachine\" style=\"position: absolute; top:10vh; left:10vw; width: 35vw; height: 35vh; border-color: orange;\"></div>","<div class=\"slotmachine\" style=\"position: absolute; top:10vh; left:55vw; width: 35vw; height: 35vh; border-color: blue;\"></div>"],"response":0,"value":0,"trial_type":"html-choice","trial_index":106,"time_elapsed":638269,"internal_node_id":"0.0-1.0-0.51","bean_trial_duration":null,"bean_duration":null,"bean_html_array":["<div class=\"slotmachine\" style=\"position: absolute; top:10vh; left:10vw; width: 35vw; height: 35vh; border-color: orange ></div>","<div class=\"slotmachine\" style=\"position: absolute; top:10vh; left:55vw; width: 35vw; height: 35vh; border-color: blue ></div>"],"bean_values":[0,0],"bean_time_after_response":2000,"bean_type":"jsPsychHtmlChoice","bean_bandits":[{"color":"orange","value":0},{"color":"blue","value":0}],"bean_value":0,"bean_score":26},{"rt":null,"stimulus":"<div style='color:white'>Score: 26</div>","response":null,"trial_type":"html-keyboard-response","trial_index":107,"time_elapsed":639271,"internal_node_id":"0.0-1.0-1.51","bean_trial_duration":1000,"bean_duration":1000,"bean_stimulus":"<div style='color:white'>Score: 26</div>","bean_choices":[],"bean_correct_key":"","bean_type":"jsPsychHtmlKeyboardResponse","bean_text":"Score: 26","bean_color":"white","bean_correct":false},{"rt":595,"stimulus":["<div class=\"slotmachine\" style=\"position: absolute; top:10vh; left:10vw; width: 35vw; height: 35vh; border-color: orange;\"></div>","<div class=\"slotmachine\" style=\"position: absolute; top:10vh; left:55vw; width: 35vw; height: 35vh; border-color: blue;\"></div>"],"response":0,"value":1,"trial_type":"html-choice","trial_index":108,"time_elapsed":641868,"internal_node_id":"0.0-1.0-0.52","bean_trial_duration":null,"bean_duration":null,"bean_html_array":["<div class=\"slotmachine\" style=\"position: absolute; top:10vh; left:10vw; width: 35vw; height: 35vh; border-color: orange ></div>","<div class=\"slotmachine\" style=\"position: absolute; top:10vh; left:55vw; width: 35vw; height: 35vh; border-color: blue ></div>"],"bean_values":[1,1],"bean_time_after_response":2000,"bean_type":"jsPsychHtmlChoice","bean_bandits":[{"color":"orange","value":1},{"color":"blue","value":1}],"bean_value":1,"bean_score":27},{"rt":null,"stimulus":"<div style='color:white'>Score: 27</div>","response":null,"trial_type":"html-keyboard-response","trial_index":109,"time_elapsed":642870,"internal_node_id":"0.0-1.0-1.52","bean_trial_duration":1000,"bean_duration":1000,"bean_stimulus":"<div style='color:white'>Score: 27</div>","bean_choices":[],"bean_correct_key":"","bean_type":"jsPsychHtmlKeyboardResponse","bean_text":"Score: 27","bean_color":"white","bean_correct":false},{"rt":153,"stimulus":["<div class=\"slotmachine\" style=\"position: absolute; top:10vh; left:10vw; width: 35vw; height: 35vh; border-color: orange;\"></div>","<div class=\"slotmachine\" style=\"position: absolute; top:10vh; left:55vw; width: 35vw; height: 35vh; border-color: blue;\"></div>"],"response":0,"value":0,"trial_type":"html-choice","trial_index":110,"time_elapsed":645025,"internal_node_id":"0.0-1.0-0.53","bean_trial_duration":null,"bean_duration":null,"bean_html_array":["<div class=\"slotmachine\" style=\"position: absolute; top:10vh; left:10vw; width: 35vw; height: 35vh; border-color: orange ></div>","<div class=\"slotmachine\" style=\"position: absolute; top:10vh; left:55vw; width: 35vw; height: 35vh; border-color: blue ></div>"],"bean_values":[0,1],"bean_time_after_response":2000,"bean_type":"jsPsychHtmlChoice","bean_bandits":[{"color":"orange","value":0},{"color":"blue","value":1}],"bean_value":0,"bean_score":27},{"rt":null,"stimulus":"<div style='color:white'>Score: 27</div>","response":null,"trial_type":"html-keyboard-response","trial_index":111,"time_elapsed":646027,"internal_node_id":"0.0-1.0-1.53","bean_trial_duration":1000,"bean_duration":1000,"bean_stimulus":"<div style='color:white'>Score: 27</div>","bean_choices":[],"bean_correct_key":"","bean_type":"jsPsychHtmlKeyboardResponse","bean_text":"Score: 27","bean_color":"white","bean_correct":false},{"rt":1095,"stimulus":["<div class=\"slotmachine\" style=\"position: absolute; top:10vh; left:10vw; width: 35vw; height: 35vh; border-color: orange;\"></div>","<div class=\"slotmachine\" style=\"position: absolute; top:10vh; left:55vw; width: 35vw; height: 35vh; border-color: blue;\"></div>"],"response":1,"value":1,"trial_type":"html-choice","trial_index":112,"time_elapsed":649124,"internal_node_id":"0.0-1.0-0.54","bean_trial_duration":null,"bean_duration":null,"bean_html_array":["<div class=\"slotmachine\" style=\"position: absolute; top:10vh; left:10vw; width: 35vw; height: 35vh; border-color: orange ></div>","<div class=\"slotmachine\" style=\"position: absolute; top:10vh; left:55vw; width: 35vw; height: 35vh; border-color: blue ></div>"],"bean_values":[0,1],"bean_time_after_response":2000,"bean_type":"jsPsychHtmlChoice","bean_bandits":[{"color":"orange","value":0},{"color":"blue","value":1}],"bean_value":1,"bean_score":28},{"rt":null,"stimulus":"<div style='color:white'>Score: 28</div>","response":null,"trial_type":"html-keyboard-response","trial_index":113,"time_elapsed":650126,"internal_node_id":"0.0-1.0-1.54","bean_trial_duration":1000,"bean_duration":1000,"bean_stimulus":"<div style='color:white'>Score: 28</div>","bean_choices":[],"bean_correct_key":"","bean_type":"jsPsychHtmlKeyboardResponse","bean_text":"Score: 28","bean_color":"white","bean_correct":false},{"rt":385,"stimulus":["<div class=\"slotmachine\" style=\"position: absolute; top:10vh; left:10vw; width: 35vw; height: 35vh; border-color: orange;\"></div>","<div class=\"slotmachine\" style=\"position: absolute; top:10vh; left:55vw; width: 35vw; height: 35vh; border-color: blue;\"></div>"],"response":0,"value":0,"trial_type":"html-choice","trial_index":114,"time_elapsed":652512,"internal_node_id":"0.0-1.0-0.55","bean_trial_duration":null,"bean_duration":null,"bean_html_array":["<div class=\"slotmachine\" style=\"position: absolute; top:10vh; left:10vw; width: 35vw; height: 35vh; border-color: orange ></div>","<div class=\"slotmachine\" style=\"position: absolute; top:10vh; left:55vw; width: 35vw; height: 35vh; border-color: blue ></div>"],"bean_values":[0,0],"bean_time_after_response":2000,"bean_type":"jsPsychHtmlChoice","bean_bandits":[{"color":"orange","value":0},{"color":"blue","value":0}],"bean_value":0,"bean_score":28},{"rt":null,"stimulus":"<div style='color:white'>Score: 28</div>","response":null,"trial_type":"html-keyboard-response","trial_index":115,"time_elapsed":653514,"internal_node_id":"0.0-1.0-1.55","bean_trial_duration":1000,"bean_duration":1000,"bean_stimulus":"<div style='color:white'>Score: 28</div>","bean_choices":[],"bean_correct_key":"","bean_type":"jsPsychHtmlKeyboardResponse","bean_text":"Score: 28","bean_color":"white","bean_correct":false},{"rt":464,"stimulus":["<div class=\"slotmachine\" style=\"position: absolute; top:10vh; left:10vw; width: 35vw; height: 35vh; border-color: orange;\"></div>","<div class=\"slotmachine\" style=\"position: absolute; top:10vh; left:55vw; width: 35vw; height: 35vh; border-color: blue;\"></div>"],"response":1,"value":0,"trial_type":"html-choice","trial_index":116,"time_elapsed":655981,"internal_node_id":"0.0-1.0-0.56","bean_trial_duration":null,"bean_duration":null,"bean_html_array":["<div class=\"slotmachine\" style=\"position: absolute; top:10vh; left:10vw; width: 35vw; height: 35vh; border-color: orange ></div>","<div class=\"slotmachine\" style=\"position: absolute; top:10vh; left:55vw; width: 35vw; height: 35vh; border-color: blue ></div>"],"bean_values":[0,0],"bean_time_after_response":2000,"bean_type":"jsPsychHtmlChoice","bean_bandits":[{"color":"orange","value":0},{"color":"blue","value":0}],"bean_value":0,"bean_score":28},{"rt":null,"stimulus":"<div style='color:white'>Score: 28</div>","response":null,"trial_type":"html-keyboard-response","trial_index":117,"time_elapsed":656983,"internal_node_id":"0.0-1.0-1.56","bean_trial_duration":1000,"bean_duration":1000,"bean_stimulus":"<div style='color:white'>Score: 28</div>","bean_choices":[],"bean_correct_key":"","bean_type":"jsPsychHtmlKeyboardResponse","bean_text":"Score: 28","bean_color":"white","bean_correct":false},{"rt":306,"stimulus":["<div class=\"slotmachine\" style=\"position: absolute; top:10vh; left:10vw; width: 35vw; height: 35vh; border-color: orange;\"></div>","<div class=\"slotmachine\" style=\"position: absolute; top:10vh; left:55vw; width: 35vw; height: 35vh; border-color: blue;\"></div>"],"response":0,"value":0,"trial_type":"html-choice","trial_index":118,"time_elapsed":659998,"internal_node_id":"0.0-1.0-0.57","bean_trial_duration":null,"bean_duration":null,"bean_html_array":["<div class=\"slotmachine\" style=\"position: absolute; top:10vh; left:10vw; width: 35vw; height: 35vh; border-color: orange ></div>","<div class=\"slotmachine\" style=\"position: absolute; top:10vh; left:55vw; width: 35vw; height: 35vh; border-color: blue ></div>"],"bean_values":[0,1],"bean_time_after_response":2000,"bean_type":"jsPsychHtmlChoice","bean_bandits":[{"color":"orange","value":0},{"color":"blue","value":1}],"bean_value":0,"bean_score":28},{"rt":null,"stimulus":"<div style='color:white'>Score: 28</div>","response":null,"trial_type":"html-keyboard-response","trial_index":119,"time_elapsed":661000,"internal_node_id":"0.0-1.0-1.57","bean_trial_duration":1000,"bean_duration":1000,"bean_stimulus":"<div style='color:white'>Score: 28</div>","bean_choices":[],"bean_correct_key":"","bean_type":"jsPsychHtmlKeyboardResponse","bean_text":"Score: 28","bean_color":"white","bean_correct":false},{"rt":228,"stimulus":["<div class=\"slotmachine\" style=\"position: absolute; top:10vh; left:10vw; width: 35vw; height: 35vh; border-color: orange;\"></div>","<div class=\"slotmachine\" style=\"position: absolute; top:10vh; left:55vw; width: 35vw; height: 35vh; border-color: blue;\"></div>"],"response":0,"value":0,"trial_type":"html-choice","trial_index":120,"time_elapsed":663231,"internal_node_id":"0.0-1.0-0.58","bean_trial_duration":null,"bean_duration":null,"bean_html_array":["<div class=\"slotmachine\" style=\"position: absolute; top:10vh; left:10vw; width: 35vw; height: 35vh; border-color: orange ></div>","<div class=\"slotmachine\" style=\"position: absolute; top:10vh; left:55vw; width: 35vw; height: 35vh; border-color: blue ></div>"],"bean_values":[0,1],"bean_time_after_response":2000,"bean_type":"jsPsychHtmlChoice","bean_bandits":[{"color":"orange","value":0},{"color":"blue","value":1}],"bean_value":0,"bean_score":28},{"rt":null,"stimulus":"<div style='color:white'>Score: 28</div>","response":null,"trial_type":"html-keyboard-response","trial_index":121,"time_elapsed":664234,"internal_node_id":"0.0-1.0-1.58","bean_trial_duration":1000,"bean_duration":1000,"bean_stimulus":"<div style='color:white'>Score: 28</div>","bean_choices":[],"bean_correct_key":"","bean_type":"jsPsychHtmlKeyboardResponse","bean_text":"Score: 28","bean_color":"white","bean_correct":false},{"rt":345,"stimulus":["<div class=\"slotmachine\" style=\"position: absolute; top:10vh; left:10vw; width: 35vw; height: 35vh; border-color: orange;\"></div>","<div class=\"slotmachine\" style=\"position: absolute; top:10vh; left:55vw; width: 35vw; height: 35vh; border-color: blue;\"></div>"],"response":1,"value":1,"trial_type":"html-choice","trial_index":122,"time_elapsed":666581,"internal_node_id":"0.0-1.0-0.59","bean_trial_duration":null,"bean_duration":null,"bean_html_array":["<div class=\"slotmachine\" style=\"position: absolute; top:10vh; left:10vw; width: 35vw; height: 35vh; border-color: orange ></div>","<div class=\"slotmachine\" style=\"position: absolute; top:10vh; left:55vw; width: 35vw; height: 35vh; border-color: blue ></div>"],"bean_values":[0,1],"bean_time_after_response":2000,"bean_type":"jsPsychHtmlChoice","bean_bandits":[{"color":"orange","value":0},{"color":"blue","value":1}],"bean_value":1,"bean_score":29},{"rt":null,"stimulus":"<div style='color:white'>Score: 29</div>","response":null,"trial_type":"html-keyboard-response","trial_index":123,"time_elapsed":667584,"internal_node_id":"0.0-1.0-1.59","bean_trial_duration":1000,"bean_duration":1000,"bean_stimulus":"<div style='color:white'>Score: 29</div>","bean_choices":[],"bean_correct_key":"","bean_type":"jsPsychHtmlKeyboardResponse","bean_text":"Score: 29","bean_color":"white","bean_correct":false},{"rt":964,"stimulus":["<div class=\"slotmachine\" style=\"position: absolute; top:10vh; left:10vw; width: 35vw; height: 35vh; border-color: orange;\"></div>","<div class=\"slotmachine\" style=\"position: absolute; top:10vh; left:55vw; width: 35vw; height: 35vh; border-color: blue;\"></div>"],"response":0,"value":1,"trial_type":"html-choice","trial_index":124,"time_elapsed":670551,"internal_node_id":"0.0-1.0-0.60","bean_trial_duration":null,"bean_duration":null,"bean_html_array":["<div class=\"slotmachine\" style=\"position: absolute; top:10vh; left:10vw; width: 35vw; height: 35vh; border-color: orange ></div>","<div class=\"slotmachine\" style=\"position: absolute; top:10vh; left:55vw; width: 35vw; height: 35vh; border-color: blue ></div>"],"bean_values":[1,1],"bean_time_after_response":2000,"bean_type":"jsPsychHtmlChoice","bean_bandits":[{"color":"orange","value":1},{"color":"blue","value":1}],"bean_value":1,"bean_score":30},{"rt":null,"stimulus":"<div style='color:white'>Score: 30</div>","response":null,"trial_type":"html-keyboard-response","trial_index":125,"time_elapsed":671553,"internal_node_id":"0.0-1.0-1.60","bean_trial_duration":1000,"bean_duration":1000,"bean_stimulus":"<div style='color:white'>Score: 30</div>","bean_choices":[],"bean_correct_key":"","bean_type":"jsPsychHtmlKeyboardResponse","bean_text":"Score: 30","bean_color":"white","bean_correct":false},{"rt":503,"stimulus":["<div class=\"slotmachine\" style=\"position: absolute; top:10vh; left:10vw; width: 35vw; height: 35vh; border-color: orange;\"></div>","<div class=\"slotmachine\" style=\"position: absolute; top:10vh; left:55vw; width: 35vw; height: 35vh; border-color: blue;\"></div>"],"response":0,"value":0,"trial_type":"html-choice","trial_index":126,"time_elapsed":674059,"internal_node_id":"0.0-1.0-0.61","bean_trial_duration":null,"bean_duration":null,"bean_html_array":["<div class=\"slotmachine\" style=\"position: absolute; top:10vh; left:10vw; width: 35vw; height: 35vh; border-color: orange ></div>","<div class=\"slotmachine\" style=\"position: absolute; top:10vh; left:55vw; width: 35vw; height: 35vh; border-color: blue ></div>"],"bean_values":[0,1],"bean_time_after_response":2000,"bean_type":"jsPsychHtmlChoice","bean_bandits":[{"color":"orange","value":0},{"color":"blue","value":1}],"bean_value":0,"bean_score":30},{"rt":null,"stimulus":"<div style='color:white'>Score: 30</div>","response":null,"trial_type":"html-keyboard-response","trial_index":127,"time_elapsed":675060,"internal_node_id":"0.0-1.0-1.61","bean_trial_duration":1000,"bean_duration":1000,"bean_stimulus":"<div style='color:white'>Score: 30</div>","bean_choices":[],"bean_correct_key":"","bean_type":"jsPsychHtmlKeyboardResponse","bean_text":"Score: 30","bean_color":"white","bean_correct":false},{"rt":1936,"stimulus":["<div class=\"slotmachine\" style=\"position: absolute; top:10vh; left:10vw; width: 35vw; height: 35vh; border-color: orange;\"></div>","<div class=\"slotmachine\" style=\"position: absolute; top:10vh; left:55vw; width: 35vw; height: 35vh; border-color: blue;\"></div>"],"response":1,"value":0,"trial_type":"html-choice","trial_index":128,"time_elapsed":678999,"internal_node_id":"0.0-1.0-0.62","bean_trial_duration":null,"bean_duration":null,"bean_html_array":["<div class=\"slotmachine\" style=\"position: absolute; top:10vh; left:10vw; width: 35vw; height: 35vh; border-color: orange ></div>","<div class=\"slotmachine\" style=\"position: absolute; top:10vh; left:55vw; width: 35vw; height: 35vh; border-color: blue ></div>"],"bean_values":[1,0],"bean_time_after_response":2000,"bean_type":"jsPsychHtmlChoice","bean_bandits":[{"color":"orange","value":1},{"color":"blue","value":0}],"bean_value":0,"bean_score":30},{"rt":null,"stimulus":"<div style='color:white'>Score: 30</div>","response":null,"trial_type":"html-keyboard-response","trial_index":129,"time_elapsed":680002,"internal_node_id":"0.0-1.0-1.62","bean_trial_duration":1000,"bean_duration":1000,"bean_stimulus":"<div style='color:white'>Score: 30</div>","bean_choices":[],"bean_correct_key":"","bean_type":"jsPsychHtmlKeyboardResponse","bean_text":"Score: 30","bean_color":"white","bean_correct":false},{"rt":294,"stimulus":["<div class=\"slotmachine\" style=\"position: absolute; top:10vh; left:10vw; width: 35vw; height: 35vh; border-color: orange;\"></div>","<div class=\"slotmachine\" style=\"position: absolute; top:10vh; left:55vw; width: 35vw; height: 35vh; border-color: blue;\"></div>"],"response":0,"value":0,"trial_type":"html-choice","trial_index":130,"time_elapsed":682299,"internal_node_id":"0.0-1.0-0.63","bean_trial_duration":null,"bean_duration":null,"bean_html_array":["<div class=\"slotmachine\" style=\"position: absolute; top:10vh; left:10vw; width: 35vw; height: 35vh; border-color: orange ></div>","<div class=\"slotmachine\" style=\"position: absolute; top:10vh; left:55vw; width: 35vw; height: 35vh; border-color: blue ></div>"],"bean_values":[0,1],"bean_time_after_response":2000,"bean_type":"jsPsychHtmlChoice","bean_bandits":[{"color":"orange","value":0},{"color":"blue","value":1}],"bean_value":0,"bean_score":30},{"rt":null,"stimulus":"<div style='color:white'>Score: 30</div>","response":null,"trial_type":"html-keyboard-response","trial_index":131,"time_elapsed":683302,"internal_node_id":"0.0-1.0-1.63","bean_trial_duration":1000,"bean_duration":1000,"bean_stimulus":"<div style='color:white'>Score: 30</div>","bean_choices":[],"bean_correct_key":"","bean_type":"jsPsychHtmlKeyboardResponse","bean_text":"Score: 30","bean_color":"white","bean_correct":false},{"rt":230,"stimulus":["<div class=\"slotmachine\" style=\"position: absolute; top:10vh; left:10vw; width: 35vw; height: 35vh; border-color: orange;\"></div>","<div class=\"slotmachine\" style=\"position: absolute; top:10vh; left:55vw; width: 35vw; height: 35vh; border-color: blue;\"></div>"],"response":0,"value":0,"trial_type":"html-choice","trial_index":132,"time_elapsed":685535,"internal_node_id":"0.0-1.0-0.64","bean_trial_duration":null,"bean_duration":null,"bean_html_array":["<div class=\"slotmachine\" style=\"position: absolute; top:10vh; left:10vw; width: 35vw; height: 35vh; border-color: orange ></div>","<div class=\"slotmachine\" style=\"position: absolute; top:10vh; left:55vw; width: 35vw; height: 35vh; border-color: blue ></div>"],"bean_values":[0,1],"bean_time_after_response":2000,"bean_type":"jsPsychHtmlChoice","bean_bandits":[{"color":"orange","value":0},{"color":"blue","value":1}],"bean_value":0,"bean_score":30},{"rt":null,"stimulus":"<div style='color:white'>Score: 30</div>","response":null,"trial_type":"html-keyboard-response","trial_index":133,"time_elapsed":686538,"internal_node_id":"0.0-1.0-1.64","bean_trial_duration":1000,"bean_duration":1000,"bean_stimulus":"<div style='color:white'>Score: 30</div>","bean_choices":[],"bean_correct_key":"","bean_type":"jsPsychHtmlKeyboardResponse","bean_text":"Score: 30","bean_color":"white","bean_correct":false},{"rt":302,"stimulus":["<div class=\"slotmachine\" style=\"position: absolute; top:10vh; left:10vw; width: 35vw; height: 35vh; border-color: orange;\"></div>","<div class=\"slotmachine\" style=\"position: absolute; top:10vh; left:55vw; width: 35vw; height: 35vh; border-color: blue;\"></div>"],"response":1,"value":1,"trial_type":"html-choice","trial_index":134,"time_elapsed":688842,"internal_node_id":"0.0-1.0-0.65","bean_trial_duration":null,"bean_duration":null,"bean_html_array":["<div class=\"slotmachine\" style=\"position: absolute; top:10vh; left:10vw; width: 35vw; height: 35vh; border-color: orange ></div>","<div class=\"slotmachine\" style=\"position: absolute; top:10vh; left:55vw; width: 35vw; height: 35vh; border-color: blue ></div>"],"bean_values":[1,1],"bean_time_after_response":2000,"bean_type":"jsPsychHtmlChoice","bean_bandits":[{"color":"orange","value":1},{"color":"blue","value":1}],"bean_value":1,"bean_score":31},{"rt":null,"stimulus":"<div style='color:white'>Score: 31</div>","response":null,"trial_type":"html-keyboard-response","trial_index":135,"time_elapsed":689844,"internal_node_id":"0.0-1.0-1.65","bean_trial_duration":1000,"bean_duration":1000,"bean_stimulus":"<div style='color:white'>Score: 31</div>","bean_choices":[],"bean_correct_key":"","bean_type":"jsPsychHtmlKeyboardResponse","bean_text":"Score: 31","bean_color":"white","bean_correct":false},{"rt":320,"stimulus":["<div class=\"slotmachine\" style=\"position: absolute; top:10vh; left:10vw; width: 35vw; height: 35vh; border-color: orange;\"></div>","<div class=\"slotmachine\" style=\"position: absolute; top:10vh; left:55vw; width: 35vw; height: 35vh; border-color: blue;\"></div>"],"response":1,"value":1,"trial_type":"html-choice","trial_index":136,"time_elapsed":692168,"internal_node_id":"0.0-1.0-0.66","bean_trial_duration":null,"bean_duration":null,"bean_html_array":["<div class=\"slotmachine\" style=\"position: absolute; top:10vh; left:10vw; width: 35vw; height: 35vh; border-color: orange ></div>","<div class=\"slotmachine\" style=\"position: absolute; top:10vh; left:55vw; width: 35vw; height: 35vh; border-color: blue ></div>"],"bean_values":[0,1],"bean_time_after_response":2000,"bean_type":"jsPsychHtmlChoice","bean_bandits":[{"color":"orange","value":0},{"color":"blue","value":1}],"bean_value":1,"bean_score":32},{"rt":null,"stimulus":"<div style='color:white'>Score: 32</div>","response":null,"trial_type":"html-keyboard-response","trial_index":137,"time_elapsed":693170,"internal_node_id":"0.0-1.0-1.66","bean_trial_duration":1000,"bean_duration":1000,"bean_stimulus":"<div style='color:white'>Score: 32</div>","bean_choices":[],"bean_correct_key":"","bean_type":"jsPsychHtmlKeyboardResponse","bean_text":"Score: 32","bean_color":"white","bean_correct":false},{"rt":336,"stimulus":["<div class=\"slotmachine\" style=\"position: absolute; top:10vh; left:10vw; width: 35vw; height: 35vh; border-color: orange;\"></div>","<div class=\"slotmachine\" style=\"position: absolute; top:10vh; left:55vw; width: 35vw; height: 35vh; border-color: blue;\"></div>"],"response":0,"value":0,"trial_type":"html-choice","trial_index":138,"time_elapsed":695509,"internal_node_id":"0.0-1.0-0.67","bean_trial_duration":null,"bean_duration":null,"bean_html_array":["<div class=\"slotmachine\" style=\"position: absolute; top:10vh; left:10vw; width: 35vw; height: 35vh; border-color: orange ></div>","<div class=\"slotmachine\" style=\"position: absolute; top:10vh; left:55vw; width: 35vw; height: 35vh; border-color: blue ></div>"],"bean_values":[0,0],"bean_time_after_response":2000,"bean_type":"jsPsychHtmlChoice","bean_bandits":[{"color":"orange","value":0},{"color":"blue","value":0}],"bean_value":0,"bean_score":32},{"rt":null,"stimulus":"<div style='color:white'>Score: 32</div>","response":null,"trial_type":"html-keyboard-response","trial_index":139,"time_elapsed":696512,"internal_node_id":"0.0-1.0-1.67","bean_trial_duration":1000,"bean_duration":1000,"bean_stimulus":"<div style='color:white'>Score: 32</div>","bean_choices":[],"bean_correct_key":"","bean_type":"jsPsychHtmlKeyboardResponse","bean_text":"Score: 32","bean_color":"white","bean_correct":false},{"rt":778,"stimulus":["<div class=\"slotmachine\" style=\"position: absolute; top:10vh; left:10vw; width: 35vw; height: 35vh; border-color: orange;\"></div>","<div class=\"slotmachine\" style=\"position: absolute; top:10vh; left:55vw; width: 35vw; height: 35vh; border-color: blue;\"></div>"],"response":1,"value":1,"trial_type":"html-choice","trial_index":140,"time_elapsed":699293,"internal_node_id":"0.0-1.0-0.68","bean_trial_duration":null,"bean_duration":null,"bean_html_array":["<div class=\"slotmachine\" style=\"position: absolute; top:10vh; left:10vw; width: 35vw; height: 35vh; border-color: orange ></div>","<div class=\"slotmachine\" style=\"position: absolute; top:10vh; left:55vw; width: 35vw; height: 35vh; border-color: blue ></div>"],"bean_values":[0,1],"bean_time_after_response":2000,"bean_type":"jsPsychHtmlChoice","bean_bandits":[{"color":"orange","value":0},{"color":"blue","value":1}],"bean_value":1,"bea